run_id,condition,success,timeout,failed_images,failed_audio,failed_video,trial_type,trial_index,time_elapsed,internal_node_id,fbclid,subject,view_history,rt,stimulus,response,task,question_order,slider_start,init_locations,moves,final_locations,recorded_at,ip,user_agent,device,browser,browser_version,platform,platform_version
103,1,TRUE,FALSE,[],[],[],preload,0,1134,0.0-0.0,IwAR1mKkATnzY-CEZJt7DkvTRHL2e6avM_K7RQbeaBoet14e7zXT9KhjIoveU,coa7x84,"""","""","""","""","""","""","""","""","""","""",2021-05-25 14:38,,"Mozilla/5.0 (iPad; CPU OS 14_4_2 like Mac OS X) AppleWebKit/605.1.15 (KHTML, like Gecko) Mobile/15E148 [FBAN/FBIOS;FBDV/iPad5,1;FBMD/iPad;FBSN/iOS;FBSV/14.4.2;FBSS/2;FBID/tablet;FBLC/en_US;FBOP/5]",iPad,Mozilla,,iOS,14_4_2
103,1,"""","""","""","""","""",instructions,1,7781,0.0-1.0,IwAR1mKkATnzY-CEZJt7DkvTRHL2e6avM_K7RQbeaBoet14e7zXT9KhjIoveU,coa7x84,"[{""page_index"":0,""viewing_time"":1578},{""page_index"":1,""viewing_time"":2125},{""page_index"":2,""viewing_time"":1196},{""page_index"":3,""viewing_time"":1722}]",6622,"""","""","""","""","""","""","""","""",2021-05-25 14:38,,"Mozilla/5.0 (iPad; CPU OS 14_4_2 like Mac OS X) AppleWebKit/605.1.15 (KHTML, like Gecko) Mobile/15E148 [FBAN/FBIOS;FBDV/iPad5,1;FBMD/iPad;FBSN/iOS;FBSV/14.4.2;FBSS/2;FBID/tablet;FBLC/en_US;FBOP/5]",iPad,Mozilla,,iOS,14_4_2
103,1,"""","""","""","""","""",html-button-response,2,9458,0.0-2.0,IwAR1mKkATnzY-CEZJt7DkvTRHL2e6avM_K7RQbeaBoet14e7zXT9KhjIoveU,coa7x84,"""",1668,"""",0,consent,"""","""","""","""","""",2021-05-25 14:38,,"Mozilla/5.0 (iPad; CPU OS 14_4_2 like Mac OS X) AppleWebKit/605.1.15 (KHTML, like Gecko) Mobile/15E148 [FBAN/FBIOS;FBDV/iPad5,1;FBMD/iPad;FBSN/iOS;FBSV/14.4.2;FBSS/2;FBID/tablet;FBLC/en_US;FBOP/5]",iPad,Mozilla,,iOS,14_4_2
103,1,"""","""","""","""","""",html-button-response,3,12178,0.0-4.0,IwAR1mKkATnzY-CEZJt7DkvTRHL2e6avM_K7RQbeaBoet14e7zXT9KhjIoveU,coa7x84,"""",2709,<p>Alright! Let's keep going. Which of these options best describes you?<br></p>,0,"""","""","""","""","""","""",2021-05-25 14:38,,"Mozilla/5.0 (iPad; CPU OS 14_4_2 like Mac OS X) AppleWebKit/605.1.15 (KHTML, like Gecko) Mobile/15E148 [FBAN/FBIOS;FBDV/iPad5,1;FBMD/iPad;FBSN/iOS;FBSV/14.4.2;FBSS/2;FBID/tablet;FBLC/en_US;FBOP/5]",iPad,Mozilla,,iOS,14_4_2
103,1,"""","""","""","""","""",instructions,4,27211,0.0-5.0,IwAR1mKkATnzY-CEZJt7DkvTRHL2e6avM_K7RQbeaBoet14e7zXT9KhjIoveU,coa7x84,"[{""page_index"":0,""viewing_time"":1130},{""page_index"":1,""viewing_time"":13900.000000000004}]",15030,"""","""","""","""","""","""","""","""",2021-05-25 14:38,,"Mozilla/5.0 (iPad; CPU OS 14_4_2 like Mac OS X) AppleWebKit/605.1.15 (KHTML, like Gecko) Mobile/15E148 [FBAN/FBIOS;FBDV/iPad5,1;FBMD/iPad;FBSN/iOS;FBSV/14.4.2;FBSS/2;FBID/tablet;FBLC/en_US;FBOP/5]",iPad,Mozilla,,iOS,14_4_2
103,1,"""","""","""","""","""",survey-multi-choice,5,45159,0.0-6.0,IwAR1mKkATnzY-CEZJt7DkvTRHL2e6avM_K7RQbeaBoet14e7zXT9KhjIoveU,coa7x84,"""",17918,"""","{""repeatsurvey"":""Yes"",""prog"":""Somewhat Agree"",""anyprog"":""No"",""classoff"":""Yes""}","""","[0,1,2,3]","""","""","""","""",2021-05-25 14:38,,"Mozilla/5.0 (iPad; CPU OS 14_4_2 like Mac OS X) AppleWebKit/605.1.15 (KHTML, like Gecko) Mobile/15E148 [FBAN/FBIOS;FBDV/iPad5,1;FBMD/iPad;FBSN/iOS;FBSV/14.4.2;FBSS/2;FBID/tablet;FBLC/en_US;FBOP/5]",iPad,Mozilla,,iOS,14_4_2
103,1,"""","""","""","""","""",html-slider-response,6,52021,0.0-7.0,IwAR1mKkATnzY-CEZJt7DkvTRHL2e6avM_K7RQbeaBoet14e7zXT9KhjIoveU,coa7x84,"""",6851,Use the slider to answer this question. You can slide the indicator anywhere between these two extremes.,0,"""","""",50,"""","""","""",2021-05-25 14:38,,"Mozilla/5.0 (iPad; CPU OS 14_4_2 like Mac OS X) AppleWebKit/605.1.15 (KHTML, like Gecko) Mobile/15E148 [FBAN/FBIOS;FBDV/iPad5,1;FBMD/iPad;FBSN/iOS;FBSV/14.4.2;FBSS/2;FBID/tablet;FBLC/en_US;FBOP/5]",iPad,Mozilla,,iOS,14_4_2
103,1,"""","""","""","""","""",instructions,7,64313,0.0-8.0,IwAR1mKkATnzY-CEZJt7DkvTRHL2e6avM_K7RQbeaBoet14e7zXT9KhjIoveU,coa7x84,"[{""page_index"":0,""viewing_time"":3610},{""page_index"":1,""viewing_time"":2860.0000000000073},{""page_index"":2,""viewing_time"":1747.9999999999927},{""page_index"":3,""viewing_time"":2535},{""page_index"":4,""viewing_time"":1529}]",12282,"""","""","""","""","""","""","""","""",2021-05-25 14:38,,"Mozilla/5.0 (iPad; CPU OS 14_4_2 like Mac OS X) AppleWebKit/605.1.15 (KHTML, like Gecko) Mobile/15E148 [FBAN/FBIOS;FBDV/iPad5,1;FBMD/iPad;FBSN/iOS;FBSV/14.4.2;FBSS/2;FBID/tablet;FBLC/en_US;FBOP/5]",iPad,Mozilla,,iOS,14_4_2
103,1,"""","""","""","""","""",free-sort,8,104306,0.0-9.0,IwAR1mKkATnzY-CEZJt7DkvTRHL2e6avM_K7RQbeaBoet14e7zXT9KhjIoveU,coa7x84,"""",39987,"""","""","""","""","""","[{""src"":""Stimuli/1.jpg"",""x"":107,""y"":253},{""src"":""Stimuli/2.jpg"",""x"":169,""y"":298},{""src"":""Stimuli/3.jpg"",""x"":119,""y"":37},{""src"":""Stimuli/4.jpg"",""x"":138,""y"":11},{""src"":""Stimuli/5.jpg"",""x"":279,""y"":269},{""src"":""Stimuli/6.jpg"",""x"":183,""y"":79},{""src"":""Stimuli/7.jpg"",""x"":54,""y"":32},{""src"":""Stimuli/8.jpg"",""x"":224,""y"":120}]","[{""src"":""Stimuli/8.jpg"",""x"":355,""y"":3},{""src"":""Stimuli/6.jpg"",""x"":334,""y"":139},{""src"":""Stimuli/4.jpg"",""x"":335,""y"":282},{""src"":""Stimuli/2.jpg"",""x"":-13,""y"":-39},{""src"":""Stimuli/7.jpg"",""x"":98,""y"":146},{""src"":""Stimuli/8.jpg"",""x"":123,""y"":-39},{""src"":""Stimuli/3.jpg"",""x"":9,""y"":341},{""src"":""Stimuli/1.jpg"",""x"":112,""y"":350},{""src"":""Stimuli/1.jpg"",""x"":-21,""y"":262},{""src"":""Stimuli/5.jpg"",""x"":129,""y"":257},{""src"":""Stimuli/8.jpg"",""x"":140,""y"":7},{""src"":""Stimuli/2.jpg"",""x"":10,""y"":11},{""src"":""Stimuli/7.jpg"",""x"":189,""y"":301},{""src"":""Stimuli/4.jpg"",""x"":284,""y"":284},{""src"":""Stimuli/6.jpg"",""x"":284,""y"":241},{""src"":""Stimuli/3.jpg"",""x"":42,""y"":288}]","[{""src"":""Stimuli/1.jpg"",""x"":-21,""y"":262},{""src"":""Stimuli/2.jpg"",""x"":10,""y"":11},{""src"":""Stimuli/3.jpg"",""x"":42,""y"":288},{""src"":""Stimuli/4.jpg"",""x"":284,""y"":284},{""src"":""Stimuli/5.jpg"",""x"":129,""y"":257},{""src"":""Stimuli/6.jpg"",""x"":284,""y"":241},{""src"":""Stimuli/7.jpg"",""x"":189,""y"":301},{""src"":""Stimuli/8.jpg"",""x"":140,""y"":7}]",2021-05-25 14:38,,"Mozilla/5.0 (iPad; CPU OS 14_4_2 like Mac OS X) AppleWebKit/605.1.15 (KHTML, like Gecko) Mobile/15E148 [FBAN/FBIOS;FBDV/iPad5,1;FBMD/iPad;FBSN/iOS;FBSV/14.4.2;FBSS/2;FBID/tablet;FBLC/en_US;FBOP/5]",iPad,Mozilla,,iOS,14_4_2
103,1,"""","""","""","""","""",survey-text,9,110802,0.0-10.0,IwAR1mKkATnzY-CEZJt7DkvTRHL2e6avM_K7RQbeaBoet14e7zXT9KhjIoveU,coa7x84,"""",6477,"""","{""Q0"":""}","""","""","""","""","""","""",2021-05-25 14:38,,"Mozilla/5.0 (iPad; CPU OS 14_4_2 like Mac OS X) AppleWebKit/605.1.15 (KHTML, like Gecko) Mobile/15E148 [FBAN/FBIOS;FBDV/iPad5,1;FBMD/iPad;FBSN/iOS;FBSV/14.4.2;FBSS/2;FBID/tablet;FBLC/en_US;FBOP/5]",iPad,Mozilla,,iOS,14_4_2
103,1,"""","""","""","""","""",survey-multi-select,10,138352,0.0-11.0,IwAR1mKkATnzY-CEZJt7DkvTRHL2e6avM_K7RQbeaBoet14e7zXT9KhjIoveU,coa7x84,"""",27524,"""","{""Topics_research"":[""Clinical and Health"",""Cognitive Science"",""Neuroscience""],""Topics_analyses"":[""Data analysis and visualization"",""Building experiments"",""Making websites and apps"",""Getting a job"",""For my own knowledge""]}","""","[0,1]","""","""","""","""",2021-05-25 14:38,,"Mozilla/5.0 (iPad; CPU OS 14_4_2 like Mac OS X) AppleWebKit/605.1.15 (KHTML, like Gecko) Mobile/15E148 [FBAN/FBIOS;FBDV/iPad5,1;FBMD/iPad;FBSN/iOS;FBSV/14.4.2;FBSS/2;FBID/tablet;FBLC/en_US;FBOP/5]",iPad,Mozilla,,iOS,14_4_2
103,1,"""","""","""","""","""",survey-text,11,160119,0.0-12.0,IwAR1mKkATnzY-CEZJt7DkvTRHL2e6avM_K7RQbeaBoet14e7zXT9KhjIoveU,coa7x84,"""",21750,"""","{""email"":"""",""comments"":""No comments ""}","""","""","""","""","""","""",2021-05-25 14:38,,"Mozilla/5.0 (iPad; CPU OS 14_4_2 like Mac OS X) AppleWebKit/605.1.15 (KHTML, like Gecko) Mobile/15E148 [FBAN/FBIOS;FBDV/iPad5,1;FBMD/iPad;FBSN/iOS;FBSV/14.4.2;FBSS/2;FBID/tablet;FBLC/en_US;FBOP/5]",iPad,Mozilla,,iOS,14_4_2
1,1,,,,,,instructions,0,17068,0.0-0.0,,,"[{""page_index"":0,""viewing_time"":4046.5899999981048},{""page_index"":1,""viewing_time"":6355.290000006789},{""page_index"":2,""viewing_time"":1395.7399999926565},{""page_index"":3,""viewing_time"":5266.155000004801}]",17066.02,,,,,,,,,2021-05-19 22:48,,"Mozilla/5.0 (Macintosh; Intel Mac OS X 10_15_7) AppleWebKit/537.36 (KHTML, like Gecko) Chrome/90.0.4430.212 Safari/537.36",Macintosh,Chrome,90.0.4430.212,OS X,10_15_7
19,1,TRUE,FALSE,[],[],[],preload,0,1078,0.0-0.0,,p99unow,,"""",,"""",,"""",,,,,2021-05-20 19:24,,"Mozilla/5.0 (Macintosh; Intel Mac OS X 10_15_7) AppleWebKit/537.36 (KHTML, like Gecko) Chrome/90.0.4430.212 Safari/537.36",Macintosh,Chrome,90.0.4430.212,OS X,10_15_7
19,1,"""","""","""","""","""",survey-multi-select,1,13795,0.0-1.0,,p99unow,,12708.325,,"{""Topics_research"":[""Development"",""Psychometrics""],""Topics_analyses"":[""Data analysis and visualization"",""Building experiments""]}",,"[1,0]",,,,,2021-05-20 19:24,,"Mozilla/5.0 (Macintosh; Intel Mac OS X 10_15_7) AppleWebKit/537.36 (KHTML, like Gecko) Chrome/90.0.4430.212 Safari/537.36",Macintosh,Chrome,90.0.4430.212,OS X,10_15_7
12,1,TRUE,FALSE,[],[],[],preload,0,1077,0.0-0.0,,y3c3z96,"""","""","""","""","""","""","""","""","""","""",2021-05-20 18:37,,"Mozilla/5.0 (Macintosh; Intel Mac OS X 10_15_7) AppleWebKit/537.36 (KHTML, like Gecko) Chrome/90.0.4430.212 Safari/537.36",Macintosh,Chrome,90.0.4430.212,OS X,10_15_7
12,1,"""","""","""","""","""",instructions,1,3276,0.0-1.0,,y3c3z96,"[{""page_index"":0,""viewing_time"":895.7900000004884},{""page_index"":1,""viewing_time"":446.9200000003184},{""page_index"":2,""viewing_time"":374.470000000656},{""page_index"":3,""viewing_time"":479.1449999993347}]",2196.77,"""","""","""","""","""","""","""","""",2021-05-20 18:37,,"Mozilla/5.0 (Macintosh; Intel Mac OS X 10_15_7) AppleWebKit/537.36 (KHTML, like Gecko) Chrome/90.0.4430.212 Safari/537.36",Macintosh,Chrome,90.0.4430.212,OS X,10_15_7
12,1,"""","""","""","""","""",html-button-response,2,4323,0.0-2.0,,y3c3z96,"""",1045.08,"""",0,consent,"""","""","""","""","""",2021-05-20 18:37,,"Mozilla/5.0 (Macintosh; Intel Mac OS X 10_15_7) AppleWebKit/537.36 (KHTML, like Gecko) Chrome/90.0.4430.212 Safari/537.36",Macintosh,Chrome,90.0.4430.212,OS X,10_15_7
12,1,"""","""","""","""","""",html-button-response,3,5064,0.0-4.0,,y3c3z96,"""",738.84,<p>Alright! Let's keep going. Which of these options best describes you?<br></p>,2,"""","""","""","""","""","""",2021-05-20 18:37,,"Mozilla/5.0 (Macintosh; Intel Mac OS X 10_15_7) AppleWebKit/537.36 (KHTML, like Gecko) Chrome/90.0.4430.212 Safari/537.36",Macintosh,Chrome,90.0.4430.212,OS X,10_15_7
12,1,"""","""","""","""","""",instructions,4,6482,0.0-5.0,,y3c3z96,"[{""page_index"":0,""viewing_time"":585.334999999759},{""page_index"":1,""viewing_time"":831.2649999988935}]",1417.03,"""","""","""","""","""","""","""","""",2021-05-20 18:37,,"Mozilla/5.0 (Macintosh; Intel Mac OS X 10_15_7) AppleWebKit/537.36 (KHTML, like Gecko) Chrome/90.0.4430.212 Safari/537.36",Macintosh,Chrome,90.0.4430.212,OS X,10_15_7
12,1,"""","""","""","""","""",survey-multi-choice,5,8086,0.0-6.0,,y3c3z96,"""",1599.93,"""","{""repeatsurvey"":"",""prog"":"",""anyprog"":"",""classoff"":""}","""","[0,1,2,3]","""","""","""","""",2021-05-20 18:37,,"Mozilla/5.0 (Macintosh; Intel Mac OS X 10_15_7) AppleWebKit/537.36 (KHTML, like Gecko) Chrome/90.0.4430.212 Safari/537.36",Macintosh,Chrome,90.0.4430.212,OS X,10_15_7
12,1,"""","""","""","""","""",html-slider-response,6,9002,0.0-7.0,,y3c3z96,"""",912.68,Use the slider to answer this question. You can slide the indicator anywhere between these two extremes.,50,"""","""",50,"""","""","""",2021-05-20 18:37,,"Mozilla/5.0 (Macintosh; Intel Mac OS X 10_15_7) AppleWebKit/537.36 (KHTML, like Gecko) Chrome/90.0.4430.212 Safari/537.36",Macintosh,Chrome,90.0.4430.212,OS X,10_15_7
12,1,"""","""","""","""","""",instructions,7,15591,0.0-8.0,,y3c3z96,"[{""page_index"":0,""viewing_time"":890.1050000004034},{""page_index"":1,""viewing_time"":538.7449999998353},{""page_index"":2,""viewing_time"":470.7849999995233},{""page_index"":3,""viewing_time"":441.12000000131957},{""page_index"":4,""viewing_time"":1137.9299999989598},{""page_index"":3,""viewing_time"":2035.3800000011688},{""page_index"":4,""viewing_time"":1073.6099999994622}]",6588.1,"""","""","""","""","""","""","""","""",2021-05-20 18:37,,"Mozilla/5.0 (Macintosh; Intel Mac OS X 10_15_7) AppleWebKit/537.36 (KHTML, like Gecko) Chrome/90.0.4430.212 Safari/537.36",Macintosh,Chrome,90.0.4430.212,OS X,10_15_7
12,1,"""","""","""","""","""",free-sort,8,42518,0.0-9.0,,y3c3z96,"""",26921.445,"""","""","""","""","""","[{""src"":""Stimuli/1.jpg"",""x"":104,""y"":100},{""src"":""Stimuli/2.jpg"",""x"":196,""y"":3},{""src"":""Stimuli/3.jpg"",""x"":210,""y"":144},{""src"":""Stimuli/4.jpg"",""x"":14,""y"":215},{""src"":""Stimuli/5.jpg"",""x"":161,""y"":86},{""src"":""Stimuli/6.jpg"",""x"":104,""y"":125},{""src"":""Stimuli/7.jpg"",""x"":100,""y"":23},{""src"":""Stimuli/8.jpg"",""x"":164,""y"":264}]","[{""src"":""Stimuli/3.jpg"",""x"":298,""y"":144},{""src"":""Stimuli/6.jpg"",""x"":-13,""y"":51},{""src"":""Stimuli/4.jpg"",""x"":15,""y"":332},{""src"":""Stimuli/4.jpg"",""x"":15,""y"":350},{""src"":""Stimuli/4.jpg"",""x"":19,""y"":314},{""src"":""Stimuli/8.jpg"",""x"":133,""y"":336},{""src"":""Stimuli/3.jpg"",""x"":259,""y"":335},{""src"":""Stimuli/1.jpg"",""x"":104,""y"":140},{""src"":""Stimuli/8.jpg"",""x"":133,""y"":324},{""src"":""Stimuli/8.jpg"",""x"":132,""y"":293},{""src"":""Stimuli/4.jpg"",""x"":19,""y"":284},{""src"":""Stimuli/3.jpg"",""x"":256,""y"":300},{""src"":""Stimuli/3.jpg"",""x"":258,""y"":275},{""src"":""Stimuli/1.jpg"",""x"":97,""y"":236},{""src"":""Stimuli/6.jpg"",""x"":-13,""y"":112},{""src"":""Stimuli/6.jpg"",""x"":43,""y"":233},{""src"":""Stimuli/5.jpg"",""x"":256,""y"":124}]","[{""src"":""Stimuli/1.jpg"",""x"":97,""y"":236},{""src"":""Stimuli/2.jpg"",""x"":196,""y"":3},{""src"":""Stimuli/3.jpg"",""x"":258,""y"":275},{""src"":""Stimuli/4.jpg"",""x"":19,""y"":284},{""src"":""Stimuli/5.jpg"",""x"":256,""y"":124},{""src"":""Stimuli/6.jpg"",""x"":43,""y"":233},{""src"":""Stimuli/7.jpg"",""x"":100,""y"":23},{""src"":""Stimuli/8.jpg"",""x"":132,""y"":293}]",2021-05-20 18:37,,"Mozilla/5.0 (Macintosh; Intel Mac OS X 10_15_7) AppleWebKit/537.36 (KHTML, like Gecko) Chrome/90.0.4430.212 Safari/537.36",Macintosh,Chrome,90.0.4430.212,OS X,10_15_7
22,1,TRUE,FALSE,[],[],[],preload,0,1054,0.0-0.0,,6jodent,"""","""","""","""","""","""","""","""","""","""",2021-05-20 19:36,,"Mozilla/5.0 (Macintosh; Intel Mac OS X 10_15_7) AppleWebKit/537.36 (KHTML, like Gecko) Chrome/90.0.4430.212 Safari/537.36",Macintosh,Chrome,90.0.4430.212,OS X,10_15_7
22,1,"""","""","""","""","""",instructions,1,15764,0.0-1.0,,6jodent,"[{""page_index"":0,""viewing_time"":3463.4299999997893},{""page_index"":1,""viewing_time"":3605.084999999235},{""page_index"":2,""viewing_time"":3013.7900000008813},{""page_index"":3,""viewing_time"":4624.824999998964}]",14708.64,"""","""","""","""","""","""","""","""",2021-05-20 19:36,,"Mozilla/5.0 (Macintosh; Intel Mac OS X 10_15_7) AppleWebKit/537.36 (KHTML, like Gecko) Chrome/90.0.4430.212 Safari/537.36",Macintosh,Chrome,90.0.4430.212,OS X,10_15_7
22,1,"""","""","""","""","""",html-button-response,2,17879,0.0-2.0,,6jodent,"""",2111.425,"""",0,consent,"""","""","""","""","""",2021-05-20 19:36,,"Mozilla/5.0 (Macintosh; Intel Mac OS X 10_15_7) AppleWebKit/537.36 (KHTML, like Gecko) Chrome/90.0.4430.212 Safari/537.36",Macintosh,Chrome,90.0.4430.212,OS X,10_15_7
22,1,"""","""","""","""","""",html-button-response,3,21256,0.0-4.0,,6jodent,"""",3371.825,<p>Alright! Let's keep going. Which of these options best describes you?<br></p>,0,"""","""","""","""","""","""",2021-05-20 19:36,,"Mozilla/5.0 (Macintosh; Intel Mac OS X 10_15_7) AppleWebKit/537.36 (KHTML, like Gecko) Chrome/90.0.4430.212 Safari/537.36",Macintosh,Chrome,90.0.4430.212,OS X,10_15_7
22,1,"""","""","""","""","""",instructions,4,30015,0.0-5.0,,6jodent,"[{""page_index"":0,""viewing_time"":1101.924999999028},{""page_index"":1,""viewing_time"":7656.419999999343}]",8758.755,"""","""","""","""","""","""","""","""",2021-05-20 19:36,,"Mozilla/5.0 (Macintosh; Intel Mac OS X 10_15_7) AppleWebKit/537.36 (KHTML, like Gecko) Chrome/90.0.4430.212 Safari/537.36",Macintosh,Chrome,90.0.4430.212,OS X,10_15_7
22,1,"""","""","""","""","""",survey-multi-choice,5,46806,0.0-6.0,,6jodent,"""",16784.32,"""","{""repeatsurvey"":""Yes"",""prog"":""Agree"",""anyprog"":""No"",""classoff"":""Yes""}","""","[0,1,2,3]","""","""","""","""",2021-05-20 19:36,,"Mozilla/5.0 (Macintosh; Intel Mac OS X 10_15_7) AppleWebKit/537.36 (KHTML, like Gecko) Chrome/90.0.4430.212 Safari/537.36",Macintosh,Chrome,90.0.4430.212,OS X,10_15_7
22,1,"""","""","""","""","""",html-slider-response,6,62189,0.0-7.0,,6jodent,"""",15379.25,Use the slider to answer this question. You can slide the indicator anywhere between these two extremes.,21,"""","""",50,"""","""","""",2021-05-20 19:36,,"Mozilla/5.0 (Macintosh; Intel Mac OS X 10_15_7) AppleWebKit/537.36 (KHTML, like Gecko) Chrome/90.0.4430.212 Safari/537.36",Macintosh,Chrome,90.0.4430.212,OS X,10_15_7
22,1,"""","""","""","""","""",instructions,7,79788,0.0-8.0,,6jodent,"[{""page_index"":0,""viewing_time"":5069.360000001325},{""page_index"":1,""viewing_time"":2996.514999998908},{""page_index"":2,""viewing_time"":3265.145000001212},{""page_index"":3,""viewing_time"":3316.694999997708},{""page_index"":4,""viewing_time"":2948.7350000017614}]",17596.895,"""","""","""","""","""","""","""","""",2021-05-20 19:36,,"Mozilla/5.0 (Macintosh; Intel Mac OS X 10_15_7) AppleWebKit/537.36 (KHTML, like Gecko) Chrome/90.0.4430.212 Safari/537.36",Macintosh,Chrome,90.0.4430.212,OS X,10_15_7
22,1,"""","""","""","""","""",free-sort,8,111941,0.0-9.0,,6jodent,"""",32150.605,"""","""","""","""","""","[{""src"":""Stimuli/1.jpg"",""x"":231,""y"":102},{""src"":""Stimuli/2.jpg"",""x"":165,""y"":231},{""src"":""Stimuli/3.jpg"",""x"":181,""y"":198},{""src"":""Stimuli/4.jpg"",""x"":283,""y"":184},{""src"":""Stimuli/5.jpg"",""x"":284,""y"":28},{""src"":""Stimuli/6.jpg"",""x"":288,""y"":49},{""src"":""Stimuli/7.jpg"",""x"":80,""y"":258},{""src"":""Stimuli/8.jpg"",""x"":282,""y"":48}]","[{""src"":""Stimuli/3.jpg"",""x"":181,""y"":198},{""src"":""Stimuli/3.jpg"",""x"":33,""y"":258},{""src"":""Stimuli/7.jpg"",""x"":22,""y"":-39},{""src"":""Stimuli/8.jpg"",""x"":307,""y"":-50},{""src"":""Stimuli/8.jpg"",""x"":71,""y"":50},{""src"":""Stimuli/6.jpg"",""x"":130,""y"":272},{""src"":""Stimuli/2.jpg"",""x"":135,""y"":-20},{""src"":""Stimuli/5.jpg"",""x"":284,""y"":30},{""src"":""Stimuli/5.jpg"",""x"":206,""y"":295},{""src"":""Stimuli/4.jpg"",""x"":286,""y"":301},{""src"":""Stimuli/1.jpg"",""x"":24,""y"":303}]","[{""src"":""Stimuli/1.jpg"",""x"":24,""y"":303},{""src"":""Stimuli/2.jpg"",""x"":135,""y"":-20},{""src"":""Stimuli/3.jpg"",""x"":33,""y"":258},{""src"":""Stimuli/4.jpg"",""x"":286,""y"":301},{""src"":""Stimuli/5.jpg"",""x"":206,""y"":295},{""src"":""Stimuli/6.jpg"",""x"":130,""y"":272},{""src"":""Stimuli/7.jpg"",""x"":22,""y"":-39},{""src"":""Stimuli/8.jpg"",""x"":71,""y"":50}]",2021-05-20 19:36,,"Mozilla/5.0 (Macintosh; Intel Mac OS X 10_15_7) AppleWebKit/537.36 (KHTML, like Gecko) Chrome/90.0.4430.212 Safari/537.36",Macintosh,Chrome,90.0.4430.212,OS X,10_15_7
22,1,"""","""","""","""","""",survey-text,9,124245,0.0-10.0,,6jodent,"""",12298.05,"""","{""Q0"":""none""}","""","""","""","""","""","""",2021-05-20 19:36,,"Mozilla/5.0 (Macintosh; Intel Mac OS X 10_15_7) AppleWebKit/537.36 (KHTML, like Gecko) Chrome/90.0.4430.212 Safari/537.36",Macintosh,Chrome,90.0.4430.212,OS X,10_15_7
22,1,"""","""","""","""","""",survey-multi-select,10,144747,0.0-11.0,,6jodent,"""",20493.215,"""","{""Topics_research"":[""Cognitive Science"",""Development""],""Topics_analyses"":[""Data analysis and visualization"",""Building experiments""]}","""","[0,1]","""","""","""","""",2021-05-20 19:36,,"Mozilla/5.0 (Macintosh; Intel Mac OS X 10_15_7) AppleWebKit/537.36 (KHTML, like Gecko) Chrome/90.0.4430.212 Safari/537.36",Macintosh,Chrome,90.0.4430.212,OS X,10_15_7
22,1,"""","""","""","""","""",survey-text,11,156766,0.0-12.0,,6jodent,"""",12010.855,"""","{""email"":"",""comments"":""}","""","""","""","""","""","""",2021-05-20 19:36,,"Mozilla/5.0 (Macintosh; Intel Mac OS X 10_15_7) AppleWebKit/537.36 (KHTML, like Gecko) Chrome/90.0.4430.212 Safari/537.36",Macintosh,Chrome,90.0.4430.212,OS X,10_15_7
2,1,TRUE,FALSE,[],[],[],preload,0,685,0.0-0.0,,d0qlbp9,"""","""","""","""","""","""","""","""","""","""",2021-05-20 17:47,,"Mozilla/5.0 (Macintosh; Intel Mac OS X 10_15_7) AppleWebKit/537.36 (KHTML, like Gecko) Chrome/90.0.4430.212 Safari/537.36",Macintosh,Chrome,90.0.4430.212,OS X,10_15_7
2,1,"""","""","""","""","""",instructions,1,3253,0.0-1.0,,d0qlbp9,"[{""page_index"":0,""viewing_time"":1364.595000000918},{""page_index"":1,""viewing_time"":403.84999999878346},{""page_index"":2,""viewing_time"":387.8850000000966},{""page_index"":3,""viewing_time"":405.60499999992317}]",2562.71,"""","""","""","""","""","""","""","""",2021-05-20 17:47,,"Mozilla/5.0 (Macintosh; Intel Mac OS X 10_15_7) AppleWebKit/537.36 (KHTML, like Gecko) Chrome/90.0.4430.212 Safari/537.36",Macintosh,Chrome,90.0.4430.212,OS X,10_15_7
2,1,"""","""","""","""","""",html-button-response,2,4436,0.0-2.0,,d0qlbp9,"""",1180.555,"""",0,consent,"""","""","""","""","""",2021-05-20 17:47,,"Mozilla/5.0 (Macintosh; Intel Mac OS X 10_15_7) AppleWebKit/537.36 (KHTML, like Gecko) Chrome/90.0.4430.212 Safari/537.36",Macintosh,Chrome,90.0.4430.212,OS X,10_15_7
2,1,"""","""","""","""","""",html-button-response,3,5172,0.0-4.0,,d0qlbp9,"""",733.825,<p>Alright! Let's keep going. Which of these options best describes you?<br></p>,1,"""","""","""","""","""","""",2021-05-20 17:47,,"Mozilla/5.0 (Macintosh; Intel Mac OS X 10_15_7) AppleWebKit/537.36 (KHTML, like Gecko) Chrome/90.0.4430.212 Safari/537.36",Macintosh,Chrome,90.0.4430.212,OS X,10_15_7
2,1,"""","""","""","""","""",instructions,4,6532,0.0-5.0,,d0qlbp9,"[{""page_index"":0,""viewing_time"":775.2700000000914},{""page_index"":1,""viewing_time"":582.9000000012456}]",1358.695,"""","""","""","""","""","""","""","""",2021-05-20 17:47,,"Mozilla/5.0 (Macintosh; Intel Mac OS X 10_15_7) AppleWebKit/537.36 (KHTML, like Gecko) Chrome/90.0.4430.212 Safari/537.36",Macintosh,Chrome,90.0.4430.212,OS X,10_15_7
2,1,"""","""","""","""","""",survey-multi-choice,5,11974,0.0-6.0,,d0qlbp9,"""",5436.115,"""","{""repeatsurvey"":""No"",""prog"":""Somewhat Disagree"",""anyprog"":""Yes"",""classoff"":""Yes""}","""","[0,1,2,3]","""","""","""","""",2021-05-20 17:47,,"Mozilla/5.0 (Macintosh; Intel Mac OS X 10_15_7) AppleWebKit/537.36 (KHTML, like Gecko) Chrome/90.0.4430.212 Safari/537.36",Macintosh,Chrome,90.0.4430.212,OS X,10_15_7
2,1,"""","""","""","""","""",html-slider-response,6,14238,0.0-7.0,,d0qlbp9,"""",2260.765,Programming knowledge,73,"""","""",50,"""","""","""",2021-05-20 17:47,,"Mozilla/5.0 (Macintosh; Intel Mac OS X 10_15_7) AppleWebKit/537.36 (KHTML, like Gecko) Chrome/90.0.4430.212 Safari/537.36",Macintosh,Chrome,90.0.4430.212,OS X,10_15_7
2,1,"""","""","""","""","""",free-sort,7,45277,0.0-8.0,,d0qlbp9,"""",31035.195,"""","""","""","""","""","[{""src"":""Stimuli/6.jpg"",""x"":600,""y"":0},{""src"":""Stimuli/5.jpg"",""x"":-300,""y"":300},{""src"":""Stimuli/8.jpg"",""x"":600,""y"":100},{""src"":""Stimuli/3.jpg"",""x"":-300,""y"":200},{""src"":""Stimuli/1.jpg"",""x"":600,""y"":200},{""src"":""Stimuli/4.jpg"",""x"":-300,""y"":100},{""src"":""Stimuli/7.jpg"",""x"":600,""y"":300},{""src"":""Stimuli/2.jpg"",""x"":-300,""y"":0}]","[{""src"":""Stimuli/2.jpg"",""x"":156,""y"":86},{""src"":""Stimuli/4.jpg"",""x"":159,""y"":54},{""src"":""Stimuli/3.jpg"",""x"":160,""y"":110},{""src"":""Stimuli/5.jpg"",""x"":237,""y"":238},{""src"":""Stimuli/6.jpg"",""x"":269,""y"":84},{""src"":""Stimuli/8.jpg"",""x"":216,""y"":155},{""src"":""Stimuli/1.jpg"",""x"":146,""y"":100},{""src"":""Stimuli/7.jpg"",""x"":128,""y"":231},{""src"":""Stimuli/2.jpg"",""x"":245,""y"":86},{""src"":""Stimuli/2.jpg"",""x"":245,""y"":86},{""src"":""Stimuli/4.jpg"",""x"":119,""y"":85},{""src"":""Stimuli/8.jpg"",""x"":31,""y"":99},{""src"":""Stimuli/7.jpg"",""x"":64,""y"":236},{""src"":""Stimuli/5.jpg"",""x"":236,""y"":217},{""src"":""Stimuli/5.jpg"",""x"":188,""y"":30}]","[{""src"":""Stimuli/6.jpg"",""x"":269,""y"":84},{""src"":""Stimuli/5.jpg"",""x"":188,""y"":30},{""src"":""Stimuli/8.jpg"",""x"":31,""y"":99},{""src"":""Stimuli/3.jpg"",""x"":160,""y"":110},{""src"":""Stimuli/1.jpg"",""x"":146,""y"":100},{""src"":""Stimuli/4.jpg"",""x"":119,""y"":85},{""src"":""Stimuli/7.jpg"",""x"":64,""y"":236},{""src"":""Stimuli/2.jpg"",""x"":245,""y"":86}]",2021-05-20 17:47,,"Mozilla/5.0 (Macintosh; Intel Mac OS X 10_15_7) AppleWebKit/537.36 (KHTML, like Gecko) Chrome/90.0.4430.212 Safari/537.36",Macintosh,Chrome,90.0.4430.212,OS X,10_15_7
3,1,TRUE,FALSE,[],[],[],preload,0,1117,0.0-0.0,,nkb0bnz,"""","""","""","""","""","""","""","""","""","""",2021-05-20 18:02,,"Mozilla/5.0 (Macintosh; Intel Mac OS X 10_15_7) AppleWebKit/537.36 (KHTML, like Gecko) Chrome/90.0.4430.212 Safari/537.36",Macintosh,Chrome,90.0.4430.212,OS X,10_15_7
3,1,"""","""","""","""","""",instructions,1,15098,0.0-1.0,,nkb0bnz,"[{""page_index"":0,""viewing_time"":1663.445000000138},{""page_index"":1,""viewing_time"":5826.890000000276},{""page_index"":2,""viewing_time"":2519.510000000082},{""page_index"":3,""viewing_time"":3963.6549999995623}]",13975.6,"""","""","""","""","""","""","""","""",2021-05-20 18:02,,"Mozilla/5.0 (Macintosh; Intel Mac OS X 10_15_7) AppleWebKit/537.36 (KHTML, like Gecko) Chrome/90.0.4430.212 Safari/537.36",Macintosh,Chrome,90.0.4430.212,OS X,10_15_7
3,1,"""","""","""","""","""",html-button-response,2,18299,0.0-2.0,,nkb0bnz,"""",3197.54,"""",0,consent,"""","""","""","""","""",2021-05-20 18:02,,"Mozilla/5.0 (Macintosh; Intel Mac OS X 10_15_7) AppleWebKit/537.36 (KHTML, like Gecko) Chrome/90.0.4430.212 Safari/537.36",Macintosh,Chrome,90.0.4430.212,OS X,10_15_7
3,1,"""","""","""","""","""",html-button-response,3,20795,0.0-4.0,,nkb0bnz,"""",2491.195,<p>Alright! Let's keep going. Which of these options best describes you?<br></p>,2,"""","""","""","""","""","""",2021-05-20 18:02,,"Mozilla/5.0 (Macintosh; Intel Mac OS X 10_15_7) AppleWebKit/537.36 (KHTML, like Gecko) Chrome/90.0.4430.212 Safari/537.36",Macintosh,Chrome,90.0.4430.212,OS X,10_15_7
3,1,"""","""","""","""","""",instructions,4,27762,0.0-5.0,,nkb0bnz,"[{""page_index"":0,""viewing_time"":910.6950000004872},{""page_index"":1,""viewing_time"":6055.065000000468}]",6966.19,"""","""","""","""","""","""","""","""",2021-05-20 18:02,,"Mozilla/5.0 (Macintosh; Intel Mac OS X 10_15_7) AppleWebKit/537.36 (KHTML, like Gecko) Chrome/90.0.4430.212 Safari/537.36",Macintosh,Chrome,90.0.4430.212,OS X,10_15_7
3,1,"""","""","""","""","""",survey-multi-choice,5,35441,0.0-6.0,,nkb0bnz,"""",7671.45,"""","{""repeatsurvey"":""Yes"",""prog"":""Somewhat Disagree"",""anyprog"":""Yes"",""classoff"":""Yes""}","""","[0,1,2,3]","""","""","""","""",2021-05-20 18:02,,"Mozilla/5.0 (Macintosh; Intel Mac OS X 10_15_7) AppleWebKit/537.36 (KHTML, like Gecko) Chrome/90.0.4430.212 Safari/537.36",Macintosh,Chrome,90.0.4430.212,OS X,10_15_7
3,1,"""","""","""","""","""",html-slider-response,6,47779,0.0-7.0,,nkb0bnz,"""",12333.69,Programming knowledge,34,"""","""",50,"""","""","""",2021-05-20 18:02,,"Mozilla/5.0 (Macintosh; Intel Mac OS X 10_15_7) AppleWebKit/537.36 (KHTML, like Gecko) Chrome/90.0.4430.212 Safari/537.36",Macintosh,Chrome,90.0.4430.212,OS X,10_15_7
3,1,"""","""","""","""","""",free-sort,7,107351,0.0-8.0,,nkb0bnz,"""",59568.655,"""","""","""","""","""","[{""src"":""Stimuli/7.jpg"",""x"":600,""y"":0},{""src"":""Stimuli/2.jpg"",""x"":-300,""y"":300},{""src"":""Stimuli/3.jpg"",""x"":600,""y"":100},{""src"":""Stimuli/1.jpg"",""x"":-300,""y"":200},{""src"":""Stimuli/5.jpg"",""x"":600,""y"":200},{""src"":""Stimuli/4.jpg"",""x"":-300,""y"":100},{""src"":""Stimuli/8.jpg"",""x"":600,""y"":300},{""src"":""Stimuli/6.jpg"",""x"":-300,""y"":0}]","[{""src"":""Stimuli/6.jpg"",""x"":128,""y"":246},{""src"":""Stimuli/4.jpg"",""x"":169,""y"":127},{""src"":""Stimuli/1.jpg"",""x"":63,""y"":117},{""src"":""Stimuli/2.jpg"",""x"":168,""y"":-32},{""src"":""Stimuli/7.jpg"",""x"":245,""y"":-50},{""src"":""Stimuli/7.jpg"",""x"":243,""y"":-45},{""src"":""Stimuli/3.jpg"",""x"":241,""y"":252},{""src"":""Stimuli/5.jpg"",""x"":25,""y"":291},{""src"":""Stimuli/8.jpg"",""x"":500,""y"":300},{""src"":""Stimuli/5.jpg"",""x"":25,""y"":270},{""src"":""Stimuli/8.jpg"",""x"":252,""y"":269},{""src"":""Stimuli/8.jpg"",""x"":70,""y"":-1}]","[{""src"":""Stimuli/7.jpg"",""x"":243,""y"":-45},{""src"":""Stimuli/2.jpg"",""x"":168,""y"":-32},{""src"":""Stimuli/3.jpg"",""x"":241,""y"":252},{""src"":""Stimuli/1.jpg"",""x"":63,""y"":117},{""src"":""Stimuli/5.jpg"",""x"":25,""y"":270},{""src"":""Stimuli/4.jpg"",""x"":169,""y"":127},{""src"":""Stimuli/8.jpg"",""x"":70,""y"":-1},{""src"":""Stimuli/6.jpg"",""x"":128,""y"":246}]",2021-05-20 18:02,,"Mozilla/5.0 (Macintosh; Intel Mac OS X 10_15_7) AppleWebKit/537.36 (KHTML, like Gecko) Chrome/90.0.4430.212 Safari/537.36",Macintosh,Chrome,90.0.4430.212,OS X,10_15_7
25,1,TRUE,FALSE,[],[],[],preload,0,801,0.0-0.0,,k6mhx86,"""","""","""","""","""","""","""","""","""","""",2021-05-20 21:34,,"Mozilla/5.0 (Macintosh; Intel Mac OS X 10_15_7) AppleWebKit/537.36 (KHTML, like Gecko) Chrome/90.0.4430.212 Safari/537.36",Macintosh,Chrome,90.0.4430.212,OS X,10_15_7
25,1,"""","""","""","""","""",instructions,1,9494,0.0-1.0,,k6mhx86,"[{""page_index"":0,""viewing_time"":2428.4350000016275},{""page_index"":1,""viewing_time"":1307.279999997263},{""page_index"":2,""viewing_time"":976.4500000019325},{""page_index"":3,""viewing_time"":3974.0899999997055}]",8688.01,"""","""","""","""","""","""","""","""",2021-05-20 21:34,,"Mozilla/5.0 (Macintosh; Intel Mac OS X 10_15_7) AppleWebKit/537.36 (KHTML, like Gecko) Chrome/90.0.4430.212 Safari/537.36",Macintosh,Chrome,90.0.4430.212,OS X,10_15_7
25,1,"""","""","""","""","""",html-button-response,2,11193,0.0-2.0,,k6mhx86,"""",1695.86,"""",0,consent,"""","""","""","""","""",2021-05-20 21:34,,"Mozilla/5.0 (Macintosh; Intel Mac OS X 10_15_7) AppleWebKit/537.36 (KHTML, like Gecko) Chrome/90.0.4430.212 Safari/537.36",Macintosh,Chrome,90.0.4430.212,OS X,10_15_7
25,1,"""","""","""","""","""",html-button-response,3,13009,0.0-4.0,,k6mhx86,"""",1811.185,<p>Alright! Let's keep going. Which of these options best describes you?<br></p>,1,"""","""","""","""","""","""",2021-05-20 21:34,,"Mozilla/5.0 (Macintosh; Intel Mac OS X 10_15_7) AppleWebKit/537.36 (KHTML, like Gecko) Chrome/90.0.4430.212 Safari/537.36",Macintosh,Chrome,90.0.4430.212,OS X,10_15_7
25,1,"""","""","""","""","""",instructions,4,19525,0.0-5.0,,k6mhx86,"[{""page_index"":0,""viewing_time"":967.0249999981024},{""page_index"":1,""viewing_time"":5547.440000002098}]",6514.9,"""","""","""","""","""","""","""","""",2021-05-20 21:34,,"Mozilla/5.0 (Macintosh; Intel Mac OS X 10_15_7) AppleWebKit/537.36 (KHTML, like Gecko) Chrome/90.0.4430.212 Safari/537.36",Macintosh,Chrome,90.0.4430.212,OS X,10_15_7
25,1,"""","""","""","""","""",survey-multi-choice,5,33489,0.0-6.0,,k6mhx86,"""",13957.63,"""","{""repeatsurvey"":""Yes"",""prog"":""Strongly Agree"",""anyprog"":""Yes"",""classoff"":""Yes""}","""","[0,1,2,3]","""","""","""","""",2021-05-20 21:34,,"Mozilla/5.0 (Macintosh; Intel Mac OS X 10_15_7) AppleWebKit/537.36 (KHTML, like Gecko) Chrome/90.0.4430.212 Safari/537.36",Macintosh,Chrome,90.0.4430.212,OS X,10_15_7
25,1,"""","""","""","""","""",html-slider-response,6,49028,0.0-7.0,,k6mhx86,"""",15535.115,Use the slider to answer this question. You can slide the indicator anywhere between these two extremes.,24,"""","""",50,"""","""","""",2021-05-20 21:34,,"Mozilla/5.0 (Macintosh; Intel Mac OS X 10_15_7) AppleWebKit/537.36 (KHTML, like Gecko) Chrome/90.0.4430.212 Safari/537.36",Macintosh,Chrome,90.0.4430.212,OS X,10_15_7
25,1,"""","""","""","""","""",instructions,7,103753,0.0-8.0,,k6mhx86,"[{""page_index"":0,""viewing_time"":3300.31500000041},{""page_index"":1,""viewing_time"":2366.744999999355},{""page_index"":2,""viewing_time"":41475.014999999985},{""page_index"":3,""viewing_time"":4017.404999998689},{""page_index"":4,""viewing_time"":3565.7549999996263}]",54725.58,"""","""","""","""","""","""","""","""",2021-05-20 21:34,,"Mozilla/5.0 (Macintosh; Intel Mac OS X 10_15_7) AppleWebKit/537.36 (KHTML, like Gecko) Chrome/90.0.4430.212 Safari/537.36",Macintosh,Chrome,90.0.4430.212,OS X,10_15_7
25,1,"""","""","""","""","""",free-sort,8,129236,0.0-9.0,,k6mhx86,"""",25481.76,"""","""","""","""","""","[{""src"":""Stimuli/1.jpg"",""x"":228,""y"":93},{""src"":""Stimuli/2.jpg"",""x"":228,""y"":170},{""src"":""Stimuli/3.jpg"",""x"":26,""y"":78},{""src"":""Stimuli/4.jpg"",""x"":298,""y"":131},{""src"":""Stimuli/5.jpg"",""x"":142,""y"":40},{""src"":""Stimuli/6.jpg"",""x"":78,""y"":279},{""src"":""Stimuli/7.jpg"",""x"":170,""y"":155},{""src"":""Stimuli/8.jpg"",""x"":5,""y"":215}]","[{""src"":""Stimuli/7.jpg"",""x"":178,""y"":-30},{""src"":""Stimuli/6.jpg"",""x"":78,""y"":151},{""src"":""Stimuli/8.jpg"",""x"":58,""y"":56},{""src"":""Stimuli/2.jpg"",""x"":266,""y"":-31},{""src"":""Stimuli/1.jpg"",""x"":167,""y"":294},{""src"":""Stimuli/4.jpg"",""x"":290,""y"":289},{""src"":""Stimuli/5.jpg"",""x"":63,""y"":279},{""src"":""Stimuli/3.jpg"",""x"":14,""y"":284},{""src"":""Stimuli/8.jpg"",""x"":69,""y"":71},{""src"":""Stimuli/8.jpg"",""x"":219,""y"":132}]","[{""src"":""Stimuli/1.jpg"",""x"":167,""y"":294},{""src"":""Stimuli/2.jpg"",""x"":266,""y"":-31},{""src"":""Stimuli/3.jpg"",""x"":14,""y"":284},{""src"":""Stimuli/4.jpg"",""x"":290,""y"":289},{""src"":""Stimuli/5.jpg"",""x"":63,""y"":279},{""src"":""Stimuli/6.jpg"",""x"":78,""y"":151},{""src"":""Stimuli/7.jpg"",""x"":178,""y"":-30},{""src"":""Stimuli/8.jpg"",""x"":219,""y"":132}]",2021-05-20 21:34,,"Mozilla/5.0 (Macintosh; Intel Mac OS X 10_15_7) AppleWebKit/537.36 (KHTML, like Gecko) Chrome/90.0.4430.212 Safari/537.36",Macintosh,Chrome,90.0.4430.212,OS X,10_15_7
25,1,"""","""","""","""","""",survey-text,9,134341,0.0-10.0,,k6mhx86,"""",5078.21,"""","{""Q0"":""none\n""}","""","""","""","""","""","""",2021-05-20 21:34,,"Mozilla/5.0 (Macintosh; Intel Mac OS X 10_15_7) AppleWebKit/537.36 (KHTML, like Gecko) Chrome/90.0.4430.212 Safari/537.36",Macintosh,Chrome,90.0.4430.212,OS X,10_15_7
25,1,"""","""","""","""","""",survey-multi-select,10,149231,0.0-11.0,,k6mhx86,"""",14883.17,"""","{""Topics_research"":[""Language"",""Cognitive Science""],""Topics_analyses"":[""Data analysis and visualization"",""Building experiments""]}","""","[0,1]","""","""","""","""",2021-05-20 21:34,,"Mozilla/5.0 (Macintosh; Intel Mac OS X 10_15_7) AppleWebKit/537.36 (KHTML, like Gecko) Chrome/90.0.4430.212 Safari/537.36",Macintosh,Chrome,90.0.4430.212,OS X,10_15_7
25,1,"""","""","""","""","""",survey-text,11,158373,0.0-12.0,,k6mhx86,"""",9133.945,"""","{""email"":"",""comments"":""}","""","""","""","""","""","""",2021-05-20 21:34,,"Mozilla/5.0 (Macintosh; Intel Mac OS X 10_15_7) AppleWebKit/537.36 (KHTML, like Gecko) Chrome/90.0.4430.212 Safari/537.36",Macintosh,Chrome,90.0.4430.212,OS X,10_15_7
35,1,TRUE,FALSE,[],[],[],preload,0,550,0.0-0.0,,l5fwlh6,"""","""","""","""","""","""","""","""","""","""",2021-05-20 21:59,,"Mozilla/5.0 (Linux; Android 11; LM-Q910) AppleWebKit/537.36 (KHTML, like Gecko) Chrome/90.0.4430.210 Mobile Safari/537.36",WebKit,Chrome,90.0.4430.210,AndroidOS,11
35,1,"""","""","""","""","""",instructions,1,7105,0.0-1.0,,l5fwlh6,"[{""page_index"":0,""viewing_time"":1355.9999999997672},{""page_index"":1,""viewing_time"":1268.4000000008382},{""page_index"":2,""viewing_time"":618.0999999924097},{""page_index"":3,""viewing_time"":3301.3999999966472}]",6547.7,"""","""","""","""","""","""","""","""",2021-05-20 21:59,,"Mozilla/5.0 (Linux; Android 11; LM-Q910) AppleWebKit/537.36 (KHTML, like Gecko) Chrome/90.0.4430.210 Mobile Safari/537.36",WebKit,Chrome,90.0.4430.210,AndroidOS,11
35,1,"""","""","""","""","""",html-button-response,2,9431,0.0-2.0,,l5fwlh6,"""",2313.2,"""",0,consent,"""","""","""","""","""",2021-05-20 21:59,,"Mozilla/5.0 (Linux; Android 11; LM-Q910) AppleWebKit/537.36 (KHTML, like Gecko) Chrome/90.0.4430.210 Mobile Safari/537.36",WebKit,Chrome,90.0.4430.210,AndroidOS,11
35,1,"""","""","""","""","""",html-button-response,3,10640,0.0-4.0,,l5fwlh6,"""",1194.4,<p>Alright! Let's keep going. Which of these options best describes you?<br></p>,1,"""","""","""","""","""","""",2021-05-20 21:59,,"Mozilla/5.0 (Linux; Android 11; LM-Q910) AppleWebKit/537.36 (KHTML, like Gecko) Chrome/90.0.4430.210 Mobile Safari/537.36",WebKit,Chrome,90.0.4430.210,AndroidOS,11
35,1,"""","""","""","""","""",instructions,4,12623,0.0-5.0,,l5fwlh6,"[{""page_index"":0,""viewing_time"":851.9000000087544},{""page_index"":1,""viewing_time"":1125.499999994645}]",1979.4,"""","""","""","""","""","""","""","""",2021-05-20 21:59,,"Mozilla/5.0 (Linux; Android 11; LM-Q910) AppleWebKit/537.36 (KHTML, like Gecko) Chrome/90.0.4430.210 Mobile Safari/537.36",WebKit,Chrome,90.0.4430.210,AndroidOS,11
35,1,"""","""","""","""","""",survey-multi-choice,5,14945,0.0-6.0,,l5fwlh6,"""",2296.4,"""","{""repeatsurvey"":"",""prog"":"",""anyprog"":"",""classoff"":""}","""","[0,1,2,3]","""","""","""","""",2021-05-20 21:59,,"Mozilla/5.0 (Linux; Android 11; LM-Q910) AppleWebKit/537.36 (KHTML, like Gecko) Chrome/90.0.4430.210 Mobile Safari/537.36",WebKit,Chrome,90.0.4430.210,AndroidOS,11
35,1,"""","""","""","""","""",html-slider-response,6,16101,0.0-7.0,,l5fwlh6,"""",1130.1,Use the slider to answer this question. You can slide the indicator anywhere between these two extremes.,50,"""","""",50,"""","""","""",2021-05-20 21:59,,"Mozilla/5.0 (Linux; Android 11; LM-Q910) AppleWebKit/537.36 (KHTML, like Gecko) Chrome/90.0.4430.210 Mobile Safari/537.36",WebKit,Chrome,90.0.4430.210,AndroidOS,11
35,1,"""","""","""","""","""",instructions,7,20403,0.0-8.0,,l5fwlh6,"[{""page_index"":0,""viewing_time"":1297.6999999955297},{""page_index"":1,""viewing_time"":715.3000000107568},{""page_index"":2,""viewing_time"":674.8999999836087},{""page_index"":3,""viewing_time"":863.4000000020023},{""page_index"":4,""viewing_time"":743.3000000019092}]",4295.5,"""","""","""","""","""","""","""","""",2021-05-20 21:59,,"Mozilla/5.0 (Linux; Android 11; LM-Q910) AppleWebKit/537.36 (KHTML, like Gecko) Chrome/90.0.4430.210 Mobile Safari/537.36",WebKit,Chrome,90.0.4430.210,AndroidOS,11
35,1,"""","""","""","""","""",free-sort,8,22157,0.0-9.0,,l5fwlh6,"""",1736.3,"""","""","""","""","""","[{""src"":""Stimuli/1.jpg"",""x"":104,""y"":278},{""src"":""Stimuli/2.jpg"",""x"":244,""y"":114},{""src"":""Stimuli/3.jpg"",""x"":67,""y"":251},{""src"":""Stimuli/4.jpg"",""x"":0,""y"":67},{""src"":""Stimuli/5.jpg"",""x"":202,""y"":224},{""src"":""Stimuli/6.jpg"",""x"":80,""y"":61},{""src"":""Stimuli/7.jpg"",""x"":172,""y"":180},{""src"":""Stimuli/8.jpg"",""x"":8,""y"":247}]",[],"[{""src"":""Stimuli/1.jpg"",""x"":104,""y"":278},{""src"":""Stimuli/2.jpg"",""x"":244,""y"":114},{""src"":""Stimuli/3.jpg"",""x"":67,""y"":251},{""src"":""Stimuli/4.jpg"",""x"":0,""y"":67},{""src"":""Stimuli/5.jpg"",""x"":202,""y"":224},{""src"":""Stimuli/6.jpg"",""x"":80,""y"":61},{""src"":""Stimuli/7.jpg"",""x"":172,""y"":180},{""src"":""Stimuli/8.jpg"",""x"":8,""y"":247}]",2021-05-20 21:59,,"Mozilla/5.0 (Linux; Android 11; LM-Q910) AppleWebKit/537.36 (KHTML, like Gecko) Chrome/90.0.4430.210 Mobile Safari/537.36",WebKit,Chrome,90.0.4430.210,AndroidOS,11
35,1,"""","""","""","""","""",survey-text,9,23291,0.0-10.0,,l5fwlh6,"""",1107.8,"""","{""Q0"":""}","""","""","""","""","""","""",2021-05-20 21:59,,"Mozilla/5.0 (Linux; Android 11; LM-Q910) AppleWebKit/537.36 (KHTML, like Gecko) Chrome/90.0.4430.210 Mobile Safari/537.36",WebKit,Chrome,90.0.4430.210,AndroidOS,11
35,1,"""","""","""","""","""",survey-multi-select,10,28051,0.0-11.0,,l5fwlh6,"""",4726.5,"""","{""Topics_research"":[],""Topics_analyses"":[]}","""","[1,0]","""","""","""","""",2021-05-20 21:59,,"Mozilla/5.0 (Linux; Android 11; LM-Q910) AppleWebKit/537.36 (KHTML, like Gecko) Chrome/90.0.4430.210 Mobile Safari/537.36",WebKit,Chrome,90.0.4430.210,AndroidOS,11
35,1,"""","""","""","""","""",survey-text,11,30464,0.0-12.0,,l5fwlh6,"""",2371.1,"""","{""email"":"",""comments"":""}","""","""","""","""","""","""",2021-05-20 21:59,,"Mozilla/5.0 (Linux; Android 11; LM-Q910) AppleWebKit/537.36 (KHTML, like Gecko) Chrome/90.0.4430.210 Mobile Safari/537.36",WebKit,Chrome,90.0.4430.210,AndroidOS,11
24,1,TRUE,FALSE,[],[],[],preload,0,600,0.0-0.0,,ze3lumy,"""","""","""","""","""","""","""","""","""","""",2021-05-20 21:20,,"Mozilla/5.0 (Macintosh; Intel Mac OS X 10_14_6) AppleWebKit/605.1.15 (KHTML, like Gecko) Version/13.1.1 Safari/605.1.15",Macintosh,Safari,13.1.1,OS X,10_14_6
24,1,"""","""","""","""","""",instructions,1,25081,0.0-1.0,,ze3lumy,"[{""page_index"":0,""viewing_time"":1613},{""page_index"":1,""viewing_time"":3922.000000000001},{""page_index"":2,""viewing_time"":2422.999999999999},{""page_index"":3,""viewing_time"":16485}]",24444,"""","""","""","""","""","""","""","""",2021-05-20 21:20,,"Mozilla/5.0 (Macintosh; Intel Mac OS X 10_14_6) AppleWebKit/605.1.15 (KHTML, like Gecko) Version/13.1.1 Safari/605.1.15",Macintosh,Safari,13.1.1,OS X,10_14_6
24,1,"""","""","""","""","""",html-button-response,2,27427,0.0-2.0,,ze3lumy,"""",2341,"""",0,consent,"""","""","""","""","""",2021-05-20 21:20,,"Mozilla/5.0 (Macintosh; Intel Mac OS X 10_14_6) AppleWebKit/605.1.15 (KHTML, like Gecko) Version/13.1.1 Safari/605.1.15",Macintosh,Safari,13.1.1,OS X,10_14_6
24,1,"""","""","""","""","""",html-button-response,3,31858,0.0-4.0,,ze3lumy,"""",4424,<p>Alright! Let's keep going. Which of these options best describes you?<br></p>,0,"""","""","""","""","""","""",2021-05-20 21:20,,"Mozilla/5.0 (Macintosh; Intel Mac OS X 10_14_6) AppleWebKit/605.1.15 (KHTML, like Gecko) Version/13.1.1 Safari/605.1.15",Macintosh,Safari,13.1.1,OS X,10_14_6
24,1,"""","""","""","""","""",instructions,4,47177,0.0-5.0,,ze3lumy,"[{""page_index"":0,""viewing_time"":1415},{""page_index"":1,""viewing_time"":13901}]",15317,"""","""","""","""","""","""","""","""",2021-05-20 21:20,,"Mozilla/5.0 (Macintosh; Intel Mac OS X 10_14_6) AppleWebKit/605.1.15 (KHTML, like Gecko) Version/13.1.1 Safari/605.1.15",Macintosh,Safari,13.1.1,OS X,10_14_6
24,1,"""","""","""","""","""",survey-multi-choice,5,73404,0.0-6.0,,ze3lumy,"""",26210,"""","{""repeatsurvey"":""Yes"",""prog"":""Agree"",""anyprog"":""No"",""classoff"":""Yes""}","""","[0,1,2,3]","""","""","""","""",2021-05-20 21:20,,"Mozilla/5.0 (Macintosh; Intel Mac OS X 10_14_6) AppleWebKit/605.1.15 (KHTML, like Gecko) Version/13.1.1 Safari/605.1.15",Macintosh,Safari,13.1.1,OS X,10_14_6
24,1,"""","""","""","""","""",html-slider-response,6,86026,0.0-7.0,,ze3lumy,"""",12612,Use the slider to answer this question. You can slide the indicator anywhere between these two extremes.,21,"""","""",50,"""","""","""",2021-05-20 21:20,,"Mozilla/5.0 (Macintosh; Intel Mac OS X 10_14_6) AppleWebKit/605.1.15 (KHTML, like Gecko) Version/13.1.1 Safari/605.1.15",Macintosh,Safari,13.1.1,OS X,10_14_6
24,1,"""","""","""","""","""",instructions,7,108974,0.0-8.0,,ze3lumy,"[{""page_index"":0,""viewing_time"":3465},{""page_index"":1,""viewing_time"":2212},{""page_index"":2,""viewing_time"":8405},{""page_index"":3,""viewing_time"":4029},{""page_index"":4,""viewing_time"":4827}]",22939,"""","""","""","""","""","""","""","""",2021-05-20 21:20,,"Mozilla/5.0 (Macintosh; Intel Mac OS X 10_14_6) AppleWebKit/605.1.15 (KHTML, like Gecko) Version/13.1.1 Safari/605.1.15",Macintosh,Safari,13.1.1,OS X,10_14_6
24,1,"""","""","""","""","""",free-sort,8,144496,0.0-9.0,,ze3lumy,"""",35539,"""","""","""","""","""","[{""src"":""Stimuli/1.jpg"",""x"":22,""y"":151},{""src"":""Stimuli/2.jpg"",""x"":22,""y"":147},{""src"":""Stimuli/3.jpg"",""x"":150,""y"":260},{""src"":""Stimuli/4.jpg"",""x"":287,""y"":250},{""src"":""Stimuli/5.jpg"",""x"":121,""y"":8},{""src"":""Stimuli/6.jpg"",""x"":130,""y"":156},{""src"":""Stimuli/7.jpg"",""x"":143,""y"":112},{""src"":""Stimuli/8.jpg"",""x"":284,""y"":22}]","[{""src"":""Stimuli/8.jpg"",""x"":219,""y"":-5},{""src"":""Stimuli/5.jpg"",""x"":86,""y"":287},{""src"":""Stimuli/7.jpg"",""x"":249,""y"":141},{""src"":""Stimuli/2.jpg"",""x"":88,""y"":13},{""src"":""Stimuli/2.jpg"",""x"":106,""y"":-10},{""src"":""Stimuli/6.jpg"",""x"":1,""y"":269},{""src"":""Stimuli/3.jpg"",""x"":185,""y"":275},{""src"":""Stimuli/4.jpg"",""x"":306,""y"":278},{""src"":""Stimuli/7.jpg"",""x"":249,""y"":183},{""src"":""Stimuli/1.jpg"",""x"":89,""y"":183},{""src"":""Stimuli/1.jpg"",""x"":115,""y"":200},{""src"":""Stimuli/7.jpg"",""x"":205,""y"":193}]","[{""src"":""Stimuli/1.jpg"",""x"":115,""y"":200},{""src"":""Stimuli/2.jpg"",""x"":106,""y"":-10},{""src"":""Stimuli/3.jpg"",""x"":185,""y"":275},{""src"":""Stimuli/4.jpg"",""x"":306,""y"":278},{""src"":""Stimuli/5.jpg"",""x"":86,""y"":287},{""src"":""Stimuli/6.jpg"",""x"":1,""y"":269},{""src"":""Stimuli/7.jpg"",""x"":205,""y"":193},{""src"":""Stimuli/8.jpg"",""x"":219,""y"":-5}]",2021-05-20 21:20,,"Mozilla/5.0 (Macintosh; Intel Mac OS X 10_14_6) AppleWebKit/605.1.15 (KHTML, like Gecko) Version/13.1.1 Safari/605.1.15",Macintosh,Safari,13.1.1,OS X,10_14_6
24,1,"""","""","""","""","""",survey-text,9,149985,0.0-10.0,,ze3lumy,"""",5479,"""","{""Q0"":""}","""","""","""","""","""","""",2021-05-20 21:20,,"Mozilla/5.0 (Macintosh; Intel Mac OS X 10_14_6) AppleWebKit/605.1.15 (KHTML, like Gecko) Version/13.1.1 Safari/605.1.15",Macintosh,Safari,13.1.1,OS X,10_14_6
24,1,"""","""","""","""","""",survey-multi-select,10,248111,0.0-11.0,,ze3lumy,"""",98121,"""","{""Topics_research"":[""Clinical and Health"",""Cognitive Science"",""Development"",""Personality and Social""],""Topics_analyses"":[""Data analysis and visualization"",""Building experiments"",""Making websites and apps"",""Getting a job""]}","""","[0,1]","""","""","""","""",2021-05-20 21:20,,"Mozilla/5.0 (Macintosh; Intel Mac OS X 10_14_6) AppleWebKit/605.1.15 (KHTML, like Gecko) Version/13.1.1 Safari/605.1.15",Macintosh,Safari,13.1.1,OS X,10_14_6
24,1,"""","""","""","""","""",survey-text,11,269387,0.0-12.0,,ze3lumy,"""",21234,"""","{""email"":"""",""comments"":""}","""","""","""","""","""","""",2021-05-20 21:20,,"Mozilla/5.0 (Macintosh; Intel Mac OS X 10_14_6) AppleWebKit/605.1.15 (KHTML, like Gecko) Version/13.1.1 Safari/605.1.15",Macintosh,Safari,13.1.1,OS X,10_14_6
37,1,TRUE,FALSE,[],[],[],preload,0,1090,0.0-0.0,IwAR294ND8SLJ33XOU6pA7UgJL2TadeX5-_yU1TmeMmLokvesetxUED5p_8jM,718cvt0,"""","""","""","""","""","""","""","""","""","""",2021-05-20 22:04,,"Mozilla/5.0 (Macintosh; Intel Mac OS X 10_15_7) AppleWebKit/537.36 (KHTML, like Gecko) Chrome/90.0.4430.93 Safari/537.36",Macintosh,Chrome,90.0.4430.93,OS X,10_15_7
37,1,"""","""","""","""","""",instructions,1,10849,0.0-1.0,IwAR294ND8SLJ33XOU6pA7UgJL2TadeX5-_yU1TmeMmLokvesetxUED5p_8jM,718cvt0,"[{""page_index"":0,""viewing_time"":1821.7599999916274},{""page_index"":1,""viewing_time"":2470.165000006091},{""page_index"":2,""viewing_time"":1706.0550000169314},{""page_index"":3,""viewing_time"":3756.40499999281}]",9755.45,"""","""","""","""","""","""","""","""",2021-05-20 22:04,,"Mozilla/5.0 (Macintosh; Intel Mac OS X 10_15_7) AppleWebKit/537.36 (KHTML, like Gecko) Chrome/90.0.4430.93 Safari/537.36",Macintosh,Chrome,90.0.4430.93,OS X,10_15_7
37,1,"""","""","""","""","""",html-button-response,2,12147,0.0-2.0,IwAR294ND8SLJ33XOU6pA7UgJL2TadeX5-_yU1TmeMmLokvesetxUED5p_8jM,718cvt0,"""",1295.855,"""",0,consent,"""","""","""","""","""",2021-05-20 22:04,,"Mozilla/5.0 (Macintosh; Intel Mac OS X 10_15_7) AppleWebKit/537.36 (KHTML, like Gecko) Chrome/90.0.4430.93 Safari/537.36",Macintosh,Chrome,90.0.4430.93,OS X,10_15_7
37,1,"""","""","""","""","""",html-button-response,3,15328,0.0-4.0,IwAR294ND8SLJ33XOU6pA7UgJL2TadeX5-_yU1TmeMmLokvesetxUED5p_8jM,718cvt0,"""",3179.36,<p>Alright! Let's keep going. Which of these options best describes you?<br></p>,0,"""","""","""","""","""","""",2021-05-20 22:04,,"Mozilla/5.0 (Macintosh; Intel Mac OS X 10_15_7) AppleWebKit/537.36 (KHTML, like Gecko) Chrome/90.0.4430.93 Safari/537.36",Macintosh,Chrome,90.0.4430.93,OS X,10_15_7
37,1,"""","""","""","""","""",instructions,4,21946,0.0-5.0,IwAR294ND8SLJ33XOU6pA7UgJL2TadeX5-_yU1TmeMmLokvesetxUED5p_8jM,718cvt0,"[{""page_index"":0,""viewing_time"":1155.5850000004284},{""page_index"":1,""viewing_time"":5460.735000000568}]",6616.58,"""","""","""","""","""","""","""","""",2021-05-20 22:04,,"Mozilla/5.0 (Macintosh; Intel Mac OS X 10_15_7) AppleWebKit/537.36 (KHTML, like Gecko) Chrome/90.0.4430.93 Safari/537.36",Macintosh,Chrome,90.0.4430.93,OS X,10_15_7
37,1,"""","""","""","""","""",survey-multi-choice,5,33759,0.0-6.0,IwAR294ND8SLJ33XOU6pA7UgJL2TadeX5-_yU1TmeMmLokvesetxUED5p_8jM,718cvt0,"""",11809.41,"""","{""repeatsurvey"":""Yes"",""prog"":""Strongly Agree"",""anyprog"":""Yes"",""classoff"":""Yes""}","""","[0,1,2,3]","""","""","""","""",2021-05-20 22:04,,"Mozilla/5.0 (Macintosh; Intel Mac OS X 10_15_7) AppleWebKit/537.36 (KHTML, like Gecko) Chrome/90.0.4430.93 Safari/537.36",Macintosh,Chrome,90.0.4430.93,OS X,10_15_7
37,1,"""","""","""","""","""",html-slider-response,6,42638,0.0-7.0,IwAR294ND8SLJ33XOU6pA7UgJL2TadeX5-_yU1TmeMmLokvesetxUED5p_8jM,718cvt0,"""",8874.215,Use the slider to answer this question. You can slide the indicator anywhere between these two extremes.,18,"""","""",50,"""","""","""",2021-05-20 22:04,,"Mozilla/5.0 (Macintosh; Intel Mac OS X 10_15_7) AppleWebKit/537.36 (KHTML, like Gecko) Chrome/90.0.4430.93 Safari/537.36",Macintosh,Chrome,90.0.4430.93,OS X,10_15_7
37,1,"""","""","""","""","""",instructions,7,54680,0.0-8.0,IwAR294ND8SLJ33XOU6pA7UgJL2TadeX5-_yU1TmeMmLokvesetxUED5p_8jM,718cvt0,"[{""page_index"":0,""viewing_time"":2783.820000011474},{""page_index"":1,""viewing_time"":2207.9650000086986},{""page_index"":2,""viewing_time"":2131.0599999851547},{""page_index"":3,""viewing_time"":3154.3150000215974},{""page_index"":4,""viewing_time"":1762.334999977611}]",12039.66,"""","""","""","""","""","""","""","""",2021-05-20 22:04,,"Mozilla/5.0 (Macintosh; Intel Mac OS X 10_15_7) AppleWebKit/537.36 (KHTML, like Gecko) Chrome/90.0.4430.93 Safari/537.36",Macintosh,Chrome,90.0.4430.93,OS X,10_15_7
37,1,"""","""","""","""","""",free-sort,8,109744,0.0-9.0,IwAR294ND8SLJ33XOU6pA7UgJL2TadeX5-_yU1TmeMmLokvesetxUED5p_8jM,718cvt0,"""",55060.665,"""","""","""","""","""","[{""src"":""Stimuli/1.jpg"",""x"":116,""y"":244},{""src"":""Stimuli/2.jpg"",""x"":96,""y"":39},{""src"":""Stimuli/3.jpg"",""x"":246,""y"":96},{""src"":""Stimuli/4.jpg"",""x"":37,""y"":114},{""src"":""Stimuli/5.jpg"",""x"":130,""y"":50},{""src"":""Stimuli/6.jpg"",""x"":121,""y"":14},{""src"":""Stimuli/7.jpg"",""x"":179,""y"":56},{""src"":""Stimuli/8.jpg"",""x"":87,""y"":118}]","[{""src"":""Stimuli/6.jpg"",""x"":20,""y"":302},{""src"":""Stimuli/1.jpg"",""x"":120,""y"":306},{""src"":""Stimuli/7.jpg"",""x"":9,""y"":189},{""src"":""Stimuli/8.jpg"",""x"":152,""y"":95},{""src"":""Stimuli/4.jpg"",""x"":228,""y"":300},{""src"":""Stimuli/3.jpg"",""x"":301,""y"":320},{""src"":""Stimuli/5.jpg"",""x"":262,""y"":307},{""src"":""Stimuli/2.jpg"",""x"":-5,""y"":35},{""src"":""Stimuli/7.jpg"",""x"":8,""y"":181},{""src"":""Stimuli/2.jpg"",""x"":-5,""y"":79},{""src"":""Stimuli/7.jpg"",""x"":8,""y"":200},{""src"":""Stimuli/2.jpg"",""x"":-6,""y"":91},{""src"":""Stimuli/8.jpg"",""x"":132,""y"":85},{""src"":""Stimuli/5.jpg"",""x"":271,""y"":121},{""src"":""Stimuli/4.jpg"",""x"":354,""y"":168},{""src"":""Stimuli/4.jpg"",""x"":266,""y"":204},{""src"":""Stimuli/4.jpg"",""x"":302,""y"":307},{""src"":""Stimuli/5.jpg"",""x"":283,""y"":326},{""src"":""Stimuli/7.jpg"",""x"":8,""y"":225}]","[{""src"":""Stimuli/1.jpg"",""x"":120,""y"":306},{""src"":""Stimuli/2.jpg"",""x"":-6,""y"":91},{""src"":""Stimuli/3.jpg"",""x"":301,""y"":320},{""src"":""Stimuli/4.jpg"",""x"":302,""y"":307},{""src"":""Stimuli/5.jpg"",""x"":283,""y"":326},{""src"":""Stimuli/6.jpg"",""x"":20,""y"":302},{""src"":""Stimuli/7.jpg"",""x"":8,""y"":225},{""src"":""Stimuli/8.jpg"",""x"":132,""y"":85}]",2021-05-20 22:04,,"Mozilla/5.0 (Macintosh; Intel Mac OS X 10_15_7) AppleWebKit/537.36 (KHTML, like Gecko) Chrome/90.0.4430.93 Safari/537.36",Macintosh,Chrome,90.0.4430.93,OS X,10_15_7
37,1,"""","""","""","""","""",survey-text,9,146619,0.0-10.0,IwAR294ND8SLJ33XOU6pA7UgJL2TadeX5-_yU1TmeMmLokvesetxUED5p_8jM,718cvt0,"""",36865.395,"""","{""Q0"":""JASP\nvague memories of HTML and C++ from high school but that was an extremely long time ago""}","""","""","""","""","""","""",2021-05-20 22:04,,"Mozilla/5.0 (Macintosh; Intel Mac OS X 10_15_7) AppleWebKit/537.36 (KHTML, like Gecko) Chrome/90.0.4430.93 Safari/537.36",Macintosh,Chrome,90.0.4430.93,OS X,10_15_7
37,1,"""","""","""","""","""",survey-multi-select,10,173043,0.0-11.0,IwAR294ND8SLJ33XOU6pA7UgJL2TadeX5-_yU1TmeMmLokvesetxUED5p_8jM,718cvt0,"""",26418.02,"""","{""Topics_research"":[""Cognitive Science"",""Development"",""Psychometrics"",""Neuroscience""],""Topics_analyses"":[""Data analysis and visualization"",""Building experiments"",""Making websites and apps"",""Getting a job"",""For my own knowledge""]}","""","[0,1]","""","""","""","""",2021-05-20 22:04,,"Mozilla/5.0 (Macintosh; Intel Mac OS X 10_15_7) AppleWebKit/537.36 (KHTML, like Gecko) Chrome/90.0.4430.93 Safari/537.36",Macintosh,Chrome,90.0.4430.93,OS X,10_15_7
37,1,"""","""","""","""","""",survey-text,11,194296,0.0-12.0,IwAR294ND8SLJ33XOU6pA7UgJL2TadeX5-_yU1TmeMmLokvesetxUED5p_8jM,718cvt0,"""",21244.275,"""","{""email"":"""",""comments"":""Cool initiative! I hope it takes off!""}","""","""","""","""","""","""",2021-05-20 22:04,,"Mozilla/5.0 (Macintosh; Intel Mac OS X 10_15_7) AppleWebKit/537.36 (KHTML, like Gecko) Chrome/90.0.4430.93 Safari/537.36",Macintosh,Chrome,90.0.4430.93,OS X,10_15_7
38,1,TRUE,FALSE,[],[],[],preload,0,1073,0.0-0.0,,8zof7xf,"""","""","""","""","""","""","""","""","""","""",2021-05-20 22:09,,"Mozilla/5.0 (Linux; Android 9; SM-G950W Build/PPR1.180610.011; wv) AppleWebKit/537.36 (KHTML, like Gecko) Version/4.0 Chrome/90.0.4430.210 Mobile Safari/537.36 [FB_IAB/FB4A;FBAV/318.0.0.39.154;]",WebKit,Chrome,90.0.4430.210,AndroidOS,9
38,1,"""","""","""","""","""",instructions,1,13985,0.0-1.0,,8zof7xf,"[{""page_index"":0,""viewing_time"":10160.199999983888},{""page_index"":1,""viewing_time"":1135.100000014063},{""page_index"":2,""viewing_time"":743.6999999918044},{""page_index"":3,""viewing_time"":843.0999999982305}]",12884.1,"""","""","""","""","""","""","""","""",2021-05-20 22:09,,"Mozilla/5.0 (Linux; Android 9; SM-G950W Build/PPR1.180610.011; wv) AppleWebKit/537.36 (KHTML, like Gecko) Version/4.0 Chrome/90.0.4430.210 Mobile Safari/537.36 [FB_IAB/FB4A;FBAV/318.0.0.39.154;]",WebKit,Chrome,90.0.4430.210,AndroidOS,9
38,1,"""","""","""","""","""",html-button-response,2,15614,0.0-2.0,,8zof7xf,"""",1624.8,"""",0,consent,"""","""","""","""","""",2021-05-20 22:09,,"Mozilla/5.0 (Linux; Android 9; SM-G950W Build/PPR1.180610.011; wv) AppleWebKit/537.36 (KHTML, like Gecko) Version/4.0 Chrome/90.0.4430.210 Mobile Safari/537.36 [FB_IAB/FB4A;FBAV/318.0.0.39.154;]",WebKit,Chrome,90.0.4430.210,AndroidOS,9
38,1,"""","""","""","""","""",html-button-response,3,17825,0.0-4.0,,8zof7xf,"""",2203.3,<p>Alright! Let's keep going. Which of these options best describes you?<br></p>,0,"""","""","""","""","""","""",2021-05-20 22:09,,"Mozilla/5.0 (Linux; Android 9; SM-G950W Build/PPR1.180610.011; wv) AppleWebKit/537.36 (KHTML, like Gecko) Version/4.0 Chrome/90.0.4430.210 Mobile Safari/537.36 [FB_IAB/FB4A;FBAV/318.0.0.39.154;]",WebKit,Chrome,90.0.4430.210,AndroidOS,9
38,1,"""","""","""","""","""",instructions,4,23012,0.0-5.0,,8zof7xf,"[{""page_index"":0,""viewing_time"":942.8000000189058},{""page_index"":1,""viewing_time"":4242.599999997765}]",5185.9,"""","""","""","""","""","""","""","""",2021-05-20 22:09,,"Mozilla/5.0 (Linux; Android 9; SM-G950W Build/PPR1.180610.011; wv) AppleWebKit/537.36 (KHTML, like Gecko) Version/4.0 Chrome/90.0.4430.210 Mobile Safari/537.36 [FB_IAB/FB4A;FBAV/318.0.0.39.154;]",WebKit,Chrome,90.0.4430.210,AndroidOS,9
38,1,"""","""","""","""","""",survey-multi-choice,5,37199,0.0-6.0,,8zof7xf,"""",14175.4,"""","{""repeatsurvey"":""Yes"",""prog"":""Strongly Agree"",""anyprog"":""No"",""classoff"":""Yes""}","""","[0,1,2,3]","""","""","""","""",2021-05-20 22:09,,"Mozilla/5.0 (Linux; Android 9; SM-G950W Build/PPR1.180610.011; wv) AppleWebKit/537.36 (KHTML, like Gecko) Version/4.0 Chrome/90.0.4430.210 Mobile Safari/537.36 [FB_IAB/FB4A;FBAV/318.0.0.39.154;]",WebKit,Chrome,90.0.4430.210,AndroidOS,9
38,1,"""","""","""","""","""",html-slider-response,6,47867,0.0-7.0,,8zof7xf,"""",10662.1,Use the slider to answer this question. You can slide the indicator anywhere between these two extremes.,3,"""","""",50,"""","""","""",2021-05-20 22:09,,"Mozilla/5.0 (Linux; Android 9; SM-G950W Build/PPR1.180610.011; wv) AppleWebKit/537.36 (KHTML, like Gecko) Version/4.0 Chrome/90.0.4430.210 Mobile Safari/537.36 [FB_IAB/FB4A;FBAV/318.0.0.39.154;]",WebKit,Chrome,90.0.4430.210,AndroidOS,9
38,1,"""","""","""","""","""",instructions,7,55596,0.0-8.0,,8zof7xf,"[{""page_index"":0,""viewing_time"":1350.3000000491738},{""page_index"":1,""viewing_time"":2691.499999957159},{""page_index"":2,""viewing_time"":1001.5000000130385},{""page_index"":3,""viewing_time"":1286.2000000313856},{""page_index"":4,""viewing_time"":1393.7999999616295}]",7723.7,"""","""","""","""","""","""","""","""",2021-05-20 22:09,,"Mozilla/5.0 (Linux; Android 9; SM-G950W Build/PPR1.180610.011; wv) AppleWebKit/537.36 (KHTML, like Gecko) Version/4.0 Chrome/90.0.4430.210 Mobile Safari/537.36 [FB_IAB/FB4A;FBAV/318.0.0.39.154;]",WebKit,Chrome,90.0.4430.210,AndroidOS,9
38,1,"""","""","""","""","""",free-sort,8,72070,0.0-9.0,,8zof7xf,"""",16469.4,"""","""","""","""","""","[{""src"":""Stimuli/1.jpg"",""x"":160,""y"":229},{""src"":""Stimuli/2.jpg"",""x"":196,""y"":220},{""src"":""Stimuli/3.jpg"",""x"":269,""y"":282},{""src"":""Stimuli/4.jpg"",""x"":59,""y"":123},{""src"":""Stimuli/5.jpg"",""x"":12,""y"":44},{""src"":""Stimuli/6.jpg"",""x"":105,""y"":218},{""src"":""Stimuli/7.jpg"",""x"":5,""y"":289},{""src"":""Stimuli/8.jpg"",""x"":187,""y"":157}]","[{""src"":""Stimuli/2.jpg"",""x"":191,""y"":25},{""src"":""Stimuli/6.jpg"",""x"":13,""y"":182},{""src"":""Stimuli/1.jpg"",""x"":103,""y"":287},{""src"":""Stimuli/8.jpg"",""x"":158,""y"":294},{""src"":""Stimuli/3.jpg"",""x"":180,""y"":303},{""src"":""Stimuli/4.jpg"",""x"":236,""y"":309},{""src"":""Stimuli/5.jpg"",""x"":191,""y"":269}]","[{""src"":""Stimuli/1.jpg"",""x"":103,""y"":286},{""src"":""Stimuli/2.jpg"",""x"":190,""y"":25},{""src"":""Stimuli/3.jpg"",""x"":180,""y"":303},{""src"":""Stimuli/4.jpg"",""x"":236,""y"":309},{""src"":""Stimuli/5.jpg"",""x"":190,""y"":269},{""src"":""Stimuli/6.jpg"",""x"":13,""y"":182},{""src"":""Stimuli/7.jpg"",""x"":5,""y"":289},{""src"":""Stimuli/8.jpg"",""x"":157,""y"":294}]",2021-05-20 22:09,,"Mozilla/5.0 (Linux; Android 9; SM-G950W Build/PPR1.180610.011; wv) AppleWebKit/537.36 (KHTML, like Gecko) Version/4.0 Chrome/90.0.4430.210 Mobile Safari/537.36 [FB_IAB/FB4A;FBAV/318.0.0.39.154;]",WebKit,Chrome,90.0.4430.210,AndroidOS,9
38,1,"""","""","""","""","""",survey-text,9,75621,0.0-10.0,,8zof7xf,"""",3537.2,"""","{""Q0"":""}","""","""","""","""","""","""",2021-05-20 22:09,,"Mozilla/5.0 (Linux; Android 9; SM-G950W Build/PPR1.180610.011; wv) AppleWebKit/537.36 (KHTML, like Gecko) Version/4.0 Chrome/90.0.4430.210 Mobile Safari/537.36 [FB_IAB/FB4A;FBAV/318.0.0.39.154;]",WebKit,Chrome,90.0.4430.210,AndroidOS,9
38,1,"""","""","""","""","""",survey-multi-select,10,94219,0.0-11.0,,8zof7xf,"""",18584,"""","{""Topics_research"":[""Language"",""Cognitive Science"",""Personality and Social"",""Neuroscience""],""Topics_analyses"":[""Data analysis and visualization"",""Making websites and apps"",""Getting a job"",""For my own knowledge""]}","""","[0,1]","""","""","""","""",2021-05-20 22:09,,"Mozilla/5.0 (Linux; Android 9; SM-G950W Build/PPR1.180610.011; wv) AppleWebKit/537.36 (KHTML, like Gecko) Version/4.0 Chrome/90.0.4430.210 Mobile Safari/537.36 [FB_IAB/FB4A;FBAV/318.0.0.39.154;]",WebKit,Chrome,90.0.4430.210,AndroidOS,9
38,1,"""","""","""","""","""",survey-text,11,105693,0.0-12.0,,8zof7xf,"""",11458.9,"""","{""email"":"""",""comments"":""}","""","""","""","""","""","""",2021-05-20 22:09,,"Mozilla/5.0 (Linux; Android 9; SM-G950W Build/PPR1.180610.011; wv) AppleWebKit/537.36 (KHTML, like Gecko) Version/4.0 Chrome/90.0.4430.210 Mobile Safari/537.36 [FB_IAB/FB4A;FBAV/318.0.0.39.154;]",WebKit,Chrome,90.0.4430.210,AndroidOS,9
39,1,TRUE,FALSE,[],[],[],preload,0,693,0.0-0.0,IwAR1DI7XChWLFCjsCUYSk5Pzb0tIeg2MTOaERjzLYvfmZGybzY-6_UXHVeY0,6592fvp,"""","""","""","""","""","""","""","""","""","""",2021-05-20 22:37,,"Mozilla/5.0 (iPhone; CPU iPhone OS 14_4_2 like Mac OS X) AppleWebKit/605.1.15 (KHTML, like Gecko) Mobile/15E148 [FBAN/FBIOS;FBDV/iPhone9,3;FBMD/iPhone;FBSN/iOS;FBSV/14.4.2;FBSS/2;FBID/phone;FBLC/en_US;FBOP/5]",iPhone,Mozilla,,iOS,14_4_2
39,1,"""","""","""","""","""",instructions,1,7762,0.0-1.0,IwAR1DI7XChWLFCjsCUYSk5Pzb0tIeg2MTOaERjzLYvfmZGybzY-6_UXHVeY0,6592fvp,"[{""page_index"":0,""viewing_time"":2144},{""page_index"":1,""viewing_time"":2216.000000000001},{""page_index"":2,""viewing_time"":1249.999999999999},{""page_index"":3,""viewing_time"":1441}]",7052,"""","""","""","""","""","""","""","""",2021-05-20 22:37,,"Mozilla/5.0 (iPhone; CPU iPhone OS 14_4_2 like Mac OS X) AppleWebKit/605.1.15 (KHTML, like Gecko) Mobile/15E148 [FBAN/FBIOS;FBDV/iPhone9,3;FBMD/iPhone;FBSN/iOS;FBSV/14.4.2;FBSS/2;FBID/phone;FBLC/en_US;FBOP/5]",iPhone,Mozilla,,iOS,14_4_2
39,1,"""","""","""","""","""",html-button-response,2,8877,0.0-2.0,IwAR1DI7XChWLFCjsCUYSk5Pzb0tIeg2MTOaERjzLYvfmZGybzY-6_UXHVeY0,6592fvp,"""",1104,"""",0,consent,"""","""","""","""","""",2021-05-20 22:37,,"Mozilla/5.0 (iPhone; CPU iPhone OS 14_4_2 like Mac OS X) AppleWebKit/605.1.15 (KHTML, like Gecko) Mobile/15E148 [FBAN/FBIOS;FBDV/iPhone9,3;FBMD/iPhone;FBSN/iOS;FBSV/14.4.2;FBSS/2;FBID/phone;FBLC/en_US;FBOP/5]",iPhone,Mozilla,,iOS,14_4_2
39,1,"""","""","""","""","""",html-button-response,3,11383,0.0-4.0,IwAR1DI7XChWLFCjsCUYSk5Pzb0tIeg2MTOaERjzLYvfmZGybzY-6_UXHVeY0,6592fvp,"""",2493,<p>Alright! Let's keep going. Which of these options best describes you?<br></p>,0,"""","""","""","""","""","""",2021-05-20 22:37,,"Mozilla/5.0 (iPhone; CPU iPhone OS 14_4_2 like Mac OS X) AppleWebKit/605.1.15 (KHTML, like Gecko) Mobile/15E148 [FBAN/FBIOS;FBDV/iPhone9,3;FBMD/iPhone;FBSN/iOS;FBSV/14.4.2;FBSS/2;FBID/phone;FBLC/en_US;FBOP/5]",iPhone,Mozilla,,iOS,14_4_2
39,1,"""","""","""","""","""",instructions,4,19436,0.0-5.0,IwAR1DI7XChWLFCjsCUYSk5Pzb0tIeg2MTOaERjzLYvfmZGybzY-6_UXHVeY0,6592fvp,"[{""page_index"":0,""viewing_time"":1045},{""page_index"":1,""viewing_time"":7005}]",8050,"""","""","""","""","""","""","""","""",2021-05-20 22:37,,"Mozilla/5.0 (iPhone; CPU iPhone OS 14_4_2 like Mac OS X) AppleWebKit/605.1.15 (KHTML, like Gecko) Mobile/15E148 [FBAN/FBIOS;FBDV/iPhone9,3;FBMD/iPhone;FBSN/iOS;FBSV/14.4.2;FBSS/2;FBID/phone;FBLC/en_US;FBOP/5]",iPhone,Mozilla,,iOS,14_4_2
39,1,"""","""","""","""","""",survey-multi-choice,5,34807,0.0-6.0,IwAR1DI7XChWLFCjsCUYSk5Pzb0tIeg2MTOaERjzLYvfmZGybzY-6_UXHVeY0,6592fvp,"""",15345,"""","{""repeatsurvey"":""Yes"",""prog"":""Somewhat Agree"",""anyprog"":""Yes"",""classoff"":""Yes""}","""","[0,1,2,3]","""","""","""","""",2021-05-20 22:37,,"Mozilla/5.0 (iPhone; CPU iPhone OS 14_4_2 like Mac OS X) AppleWebKit/605.1.15 (KHTML, like Gecko) Mobile/15E148 [FBAN/FBIOS;FBDV/iPhone9,3;FBMD/iPhone;FBSN/iOS;FBSV/14.4.2;FBSS/2;FBID/phone;FBLC/en_US;FBOP/5]",iPhone,Mozilla,,iOS,14_4_2
39,1,"""","""","""","""","""",html-slider-response,6,46676,0.0-7.0,IwAR1DI7XChWLFCjsCUYSk5Pzb0tIeg2MTOaERjzLYvfmZGybzY-6_UXHVeY0,6592fvp,"""",11855,Use the slider to answer this question. You can slide the indicator anywhere between these two extremes.,55,"""","""",50,"""","""","""",2021-05-20 22:37,,"Mozilla/5.0 (iPhone; CPU iPhone OS 14_4_2 like Mac OS X) AppleWebKit/605.1.15 (KHTML, like Gecko) Mobile/15E148 [FBAN/FBIOS;FBDV/iPhone9,3;FBMD/iPhone;FBSN/iOS;FBSV/14.4.2;FBSS/2;FBID/phone;FBLC/en_US;FBOP/5]",iPhone,Mozilla,,iOS,14_4_2
39,1,"""","""","""","""","""",instructions,7,63085,0.0-8.0,IwAR1DI7XChWLFCjsCUYSk5Pzb0tIeg2MTOaERjzLYvfmZGybzY-6_UXHVeY0,6592fvp,"[{""page_index"":0,""viewing_time"":3945.9999999999927},{""page_index"":1,""viewing_time"":3510},{""page_index"":2,""viewing_time"":3307},{""page_index"":3,""viewing_time"":2837},{""page_index"":4,""viewing_time"":2797}]",16397,"""","""","""","""","""","""","""","""",2021-05-20 22:37,,"Mozilla/5.0 (iPhone; CPU iPhone OS 14_4_2 like Mac OS X) AppleWebKit/605.1.15 (KHTML, like Gecko) Mobile/15E148 [FBAN/FBIOS;FBDV/iPhone9,3;FBMD/iPhone;FBSN/iOS;FBSV/14.4.2;FBSS/2;FBID/phone;FBLC/en_US;FBOP/5]",iPhone,Mozilla,,iOS,14_4_2
39,1,"""","""","""","""","""",free-sort,8,120120,0.0-9.0,IwAR1DI7XChWLFCjsCUYSk5Pzb0tIeg2MTOaERjzLYvfmZGybzY-6_UXHVeY0,6592fvp,"""",57026,"""","""","""","""","""","[{""src"":""Stimuli/1.jpg"",""x"":231,""y"":129},{""src"":""Stimuli/2.jpg"",""x"":270,""y"":0},{""src"":""Stimuli/3.jpg"",""x"":253,""y"":76},{""src"":""Stimuli/4.jpg"",""x"":9,""y"":46},{""src"":""Stimuli/5.jpg"",""x"":213,""y"":86},{""src"":""Stimuli/6.jpg"",""x"":278,""y"":1},{""src"":""Stimuli/7.jpg"",""x"":11,""y"":79},{""src"":""Stimuli/8.jpg"",""x"":185,""y"":34}]","[{""src"":""Stimuli/6.jpg"",""x"":22,""y"":309},{""src"":""Stimuli/8.jpg"",""x"":108,""y"":323},{""src"":""Stimuli/5.jpg"",""x"":245,""y"":262},{""src"":""Stimuli/8.jpg"",""x"":93,""y"":233},{""src"":""Stimuli/5.jpg"",""x"":146,""y"":331},{""src"":""Stimuli/6.jpg"",""x"":19,""y"":344},{""src"":""Stimuli/3.jpg"",""x"":247,""y"":328},{""src"":""Stimuli/1.jpg"",""x"":305,""y"":338},{""src"":""Stimuli/3.jpg"",""x"":258,""y"":350},{""src"":""Stimuli/5.jpg"",""x"":152,""y"":350},{""src"":""Stimuli/5.jpg"",""x"":150,""y"":320},{""src"":""Stimuli/1.jpg"",""x"":295,""y"":316},{""src"":""Stimuli/3.jpg"",""x"":252,""y"":311},{""src"":""Stimuli/1.jpg"",""x"":288,""y"":317},{""src"":""Stimuli/7.jpg"",""x"":93,""y"":135},{""src"":""Stimuli/4.jpg"",""x"":0,""y"":320},{""src"":""Stimuli/2.jpg"",""x"":209,""y"":168},{""src"":""Stimuli/7.jpg"",""x"":93,""y"":112},{""src"":""Stimuli/7.jpg"",""x"":98,""y"":91},{""src"":""Stimuli/8.jpg"",""x"":106,""y"":228},{""src"":""Stimuli/2.jpg"",""x"":263,""y"":-35},{""src"":""Stimuli/2.jpg"",""x"":218,""y"":167}]","[{""src"":""Stimuli/1.jpg"",""x"":288,""y"":317},{""src"":""Stimuli/2.jpg"",""x"":218,""y"":167},{""src"":""Stimuli/3.jpg"",""x"":252,""y"":311},{""src"":""Stimuli/4.jpg"",""x"":0,""y"":320},{""src"":""Stimuli/5.jpg"",""x"":150,""y"":320},{""src"":""Stimuli/6.jpg"",""x"":19,""y"":344},{""src"":""Stimuli/7.jpg"",""x"":98,""y"":91},{""src"":""Stimuli/8.jpg"",""x"":106,""y"":228}]",2021-05-20 22:37,,"Mozilla/5.0 (iPhone; CPU iPhone OS 14_4_2 like Mac OS X) AppleWebKit/605.1.15 (KHTML, like Gecko) Mobile/15E148 [FBAN/FBIOS;FBDV/iPhone9,3;FBMD/iPhone;FBSN/iOS;FBSV/14.4.2;FBSS/2;FBID/phone;FBLC/en_US;FBOP/5]",iPhone,Mozilla,,iOS,14_4_2
39,1,"""","""","""","""","""",survey-text,9,125376,0.0-10.0,IwAR1DI7XChWLFCjsCUYSk5Pzb0tIeg2MTOaERjzLYvfmZGybzY-6_UXHVeY0,6592fvp,"""",5228,"""","{""Q0"":""}","""","""","""","""","""","""",2021-05-20 22:37,,"Mozilla/5.0 (iPhone; CPU iPhone OS 14_4_2 like Mac OS X) AppleWebKit/605.1.15 (KHTML, like Gecko) Mobile/15E148 [FBAN/FBIOS;FBDV/iPhone9,3;FBMD/iPhone;FBSN/iOS;FBSV/14.4.2;FBSS/2;FBID/phone;FBLC/en_US;FBOP/5]",iPhone,Mozilla,,iOS,14_4_2
39,1,"""","""","""","""","""",survey-multi-select,10,152820,0.0-11.0,IwAR1DI7XChWLFCjsCUYSk5Pzb0tIeg2MTOaERjzLYvfmZGybzY-6_UXHVeY0,6592fvp,"""",27431,"""","{""Topics_research"":[""Clinical and Health"",""Psychometrics"",""Personality and Social""],""Topics_analyses"":[""Data analysis and visualization"",""Building experiments""]}","""","[1,0]","""","""","""","""",2021-05-20 22:37,,"Mozilla/5.0 (iPhone; CPU iPhone OS 14_4_2 like Mac OS X) AppleWebKit/605.1.15 (KHTML, like Gecko) Mobile/15E148 [FBAN/FBIOS;FBDV/iPhone9,3;FBMD/iPhone;FBSN/iOS;FBSV/14.4.2;FBSS/2;FBID/phone;FBLC/en_US;FBOP/5]",iPhone,Mozilla,,iOS,14_4_2
39,1,"""","""","""","""","""",survey-text,11,194358,0.0-12.0,IwAR1DI7XChWLFCjsCUYSk5Pzb0tIeg2MTOaERjzLYvfmZGybzY-6_UXHVeY0,6592fvp,"""",41510,"""","{""email"":"""",""comments"":""Thats a great survey, I had to say it! Well done!""}","""","""","""","""","""","""",2021-05-20 22:37,,"Mozilla/5.0 (iPhone; CPU iPhone OS 14_4_2 like Mac OS X) AppleWebKit/605.1.15 (KHTML, like Gecko) Mobile/15E148 [FBAN/FBIOS;FBDV/iPhone9,3;FBMD/iPhone;FBSN/iOS;FBSV/14.4.2;FBSS/2;FBID/phone;FBLC/en_US;FBOP/5]",iPhone,Mozilla,,iOS,14_4_2
4,1,TRUE,FALSE,[],[],[],preload,0,1177,0.0-0.0,,g8xf97q,"""","""","""","""","""","""","""","""","""","""",2021-05-20 18:11,,"Mozilla/5.0 (Macintosh; Intel Mac OS X 10_15_7) AppleWebKit/537.36 (KHTML, like Gecko) Chrome/90.0.4430.212 Safari/537.36",Macintosh,Chrome,90.0.4430.212,OS X,10_15_7
4,1,"""","""","""","""","""",instructions,1,3566,0.0-1.0,,g8xf97q,"[{""page_index"":0,""viewing_time"":1137.4899999991612},{""page_index"":1,""viewing_time"":415.0550000013027},{""page_index"":2,""viewing_time"":410.9699999989971},{""page_index"":3,""viewing_time"":422.55500000101165}]",2386.54,"""","""","""","""","""","""","""","""",2021-05-20 18:11,,"Mozilla/5.0 (Macintosh; Intel Mac OS X 10_15_7) AppleWebKit/537.36 (KHTML, like Gecko) Chrome/90.0.4430.212 Safari/537.36",Macintosh,Chrome,90.0.4430.212,OS X,10_15_7
4,1,"""","""","""","""","""",html-button-response,2,4690,0.0-2.0,,g8xf97q,"""",1122.665,"""",0,consent,"""","""","""","""","""",2021-05-20 18:11,,"Mozilla/5.0 (Macintosh; Intel Mac OS X 10_15_7) AppleWebKit/537.36 (KHTML, like Gecko) Chrome/90.0.4430.212 Safari/537.36",Macintosh,Chrome,90.0.4430.212,OS X,10_15_7
4,1,"""","""","""","""","""",html-button-response,3,5483,0.0-4.0,,g8xf97q,"""",790.9,<p>Alright! Let's keep going. Which of these options best describes you?<br></p>,1,"""","""","""","""","""","""",2021-05-20 18:11,,"Mozilla/5.0 (Macintosh; Intel Mac OS X 10_15_7) AppleWebKit/537.36 (KHTML, like Gecko) Chrome/90.0.4430.212 Safari/537.36",Macintosh,Chrome,90.0.4430.212,OS X,10_15_7
4,1,"""","""","""","""","""",instructions,4,7265,0.0-5.0,,g8xf97q,"[{""page_index"":0,""viewing_time"":1017.4600000009377},{""page_index"":1,""viewing_time"":762.1149999995396}]",1780.3,"""","""","""","""","""","""","""","""",2021-05-20 18:11,,"Mozilla/5.0 (Macintosh; Intel Mac OS X 10_15_7) AppleWebKit/537.36 (KHTML, like Gecko) Chrome/90.0.4430.212 Safari/537.36",Macintosh,Chrome,90.0.4430.212,OS X,10_15_7
4,1,"""","""","""","""","""",survey-multi-choice,5,9839,0.0-6.0,,g8xf97q,"""",2570.01,"""","{""repeatsurvey"":"",""prog"":"",""anyprog"":"",""classoff"":""}","""","[0,1,2,3]","""","""","""","""",2021-05-20 18:11,,"Mozilla/5.0 (Macintosh; Intel Mac OS X 10_15_7) AppleWebKit/537.36 (KHTML, like Gecko) Chrome/90.0.4430.212 Safari/537.36",Macintosh,Chrome,90.0.4430.212,OS X,10_15_7
4,1,"""","""","""","""","""",html-slider-response,6,11069,0.0-7.0,,g8xf97q,"""",1227.31,Programming knowledge,50,"""","""",50,"""","""","""",2021-05-20 18:11,,"Mozilla/5.0 (Macintosh; Intel Mac OS X 10_15_7) AppleWebKit/537.36 (KHTML, like Gecko) Chrome/90.0.4430.212 Safari/537.36",Macintosh,Chrome,90.0.4430.212,OS X,10_15_7
4,1,"""","""","""","""","""",instructions,7,56942,0.0-8.0,,g8xf97q,"[{""page_index"":0,""viewing_time"":4558.37000000065},{""page_index"":1,""viewing_time"":20285.304999999425},{""page_index"":2,""viewing_time"":1139.3000000007305},{""page_index"":3,""viewing_time"":1371.8399999997928},{""page_index"":4,""viewing_time"":14174.03000000013},{""page_index"":5,""viewing_time"":4279.880000000048}]",45809.035,"""","""","""","""","""","""","""","""",2021-05-20 18:11,,"Mozilla/5.0 (Macintosh; Intel Mac OS X 10_15_7) AppleWebKit/537.36 (KHTML, like Gecko) Chrome/90.0.4430.212 Safari/537.36",Macintosh,Chrome,90.0.4430.212,OS X,10_15_7
4,1,"""","""","""","""","""",free-sort,8,90991,0.0-9.0,,g8xf97q,"""",34046.965,"""","""","""","""","""","[{""src"":""Stimuli/4.jpg"",""x"":600,""y"":0},{""src"":""Stimuli/8.jpg"",""x"":-300,""y"":300},{""src"":""Stimuli/2.jpg"",""x"":600,""y"":100},{""src"":""Stimuli/1.jpg"",""x"":-300,""y"":200},{""src"":""Stimuli/6.jpg"",""x"":600,""y"":200},{""src"":""Stimuli/3.jpg"",""x"":-300,""y"":100},{""src"":""Stimuli/7.jpg"",""x"":600,""y"":300},{""src"":""Stimuli/5.jpg"",""x"":-300,""y"":0}]","[{""src"":""Stimuli/5.jpg"",""x"":156,""y"":257},{""src"":""Stimuli/3.jpg"",""x"":131,""y"":125},{""src"":""Stimuli/1.jpg"",""x"":287,""y"":127},{""src"":""Stimuli/8.jpg"",""x"":104,""y"":237},{""src"":""Stimuli/4.jpg"",""x"":175,""y"":54},{""src"":""Stimuli/2.jpg"",""x"":183,""y"":195},{""src"":""Stimuli/6.jpg"",""x"":115,""y"":214},{""src"":""Stimuli/7.jpg"",""x"":112,""y"":275}]","[{""src"":""Stimuli/4.jpg"",""x"":175,""y"":54},{""src"":""Stimuli/8.jpg"",""x"":104,""y"":237},{""src"":""Stimuli/2.jpg"",""x"":183,""y"":195},{""src"":""Stimuli/1.jpg"",""x"":287,""y"":127},{""src"":""Stimuli/6.jpg"",""x"":115,""y"":214},{""src"":""Stimuli/3.jpg"",""x"":131,""y"":125},{""src"":""Stimuli/7.jpg"",""x"":112,""y"":275},{""src"":""Stimuli/5.jpg"",""x"":156,""y"":257}]",2021-05-20 18:11,,"Mozilla/5.0 (Macintosh; Intel Mac OS X 10_15_7) AppleWebKit/537.36 (KHTML, like Gecko) Chrome/90.0.4430.212 Safari/537.36",Macintosh,Chrome,90.0.4430.212,OS X,10_15_7
42,1,TRUE,FALSE,[],[],[],preload,0,735,0.0-0.0,,suf42s0,"""","""","""","""","""","""","""","""","""","""",2021-05-20 22:51,,"Mozilla/5.0 (Linux; Android 11; SM-G986W Build/RP1A.200720.012; wv) AppleWebKit/537.36 (KHTML, like Gecko) Version/4.0 Chrome/90.0.4430.210 Mobile Safari/537.36 [FB_IAB/FB4A;FBAV/318.0.0.39.154;]",WebKit,Chrome,90.0.4430.210,AndroidOS,11
42,1,"""","""","""","""","""",instructions,1,14287,0.0-1.0,,suf42s0,"[{""page_index"":0,""viewing_time"":2420.8999999973457},{""page_index"":1,""viewing_time"":3535.7999999978347},{""page_index"":2,""viewing_time"":3182.7999999950407},{""page_index"":3,""viewing_time"":4404.300000009243}]",13545.3,"""","""","""","""","""","""","""","""",2021-05-20 22:51,,"Mozilla/5.0 (Linux; Android 11; SM-G986W Build/RP1A.200720.012; wv) AppleWebKit/537.36 (KHTML, like Gecko) Version/4.0 Chrome/90.0.4430.210 Mobile Safari/537.36 [FB_IAB/FB4A;FBAV/318.0.0.39.154;]",WebKit,Chrome,90.0.4430.210,AndroidOS,11
42,1,"""","""","""","""","""",html-button-response,2,17170,0.0-2.0,,suf42s0,"""",2879.8,"""",0,consent,"""","""","""","""","""",2021-05-20 22:51,,"Mozilla/5.0 (Linux; Android 11; SM-G986W Build/RP1A.200720.012; wv) AppleWebKit/537.36 (KHTML, like Gecko) Version/4.0 Chrome/90.0.4430.210 Mobile Safari/537.36 [FB_IAB/FB4A;FBAV/318.0.0.39.154;]",WebKit,Chrome,90.0.4430.210,AndroidOS,11
42,1,"""","""","""","""","""",html-button-response,3,18829,0.0-4.0,,suf42s0,"""",1647.6,<p>Alright! Let's keep going. Which of these options best describes you?<br></p>,0,"""","""","""","""","""","""",2021-05-20 22:51,,"Mozilla/5.0 (Linux; Android 11; SM-G986W Build/RP1A.200720.012; wv) AppleWebKit/537.36 (KHTML, like Gecko) Version/4.0 Chrome/90.0.4430.210 Mobile Safari/537.36 [FB_IAB/FB4A;FBAV/318.0.0.39.154;]",WebKit,Chrome,90.0.4430.210,AndroidOS,11
42,1,"""","""","""","""","""",instructions,4,26997,0.0-5.0,,suf42s0,"[{""page_index"":0,""viewing_time"":1522.1000000019558},{""page_index"":1,""viewing_time"":6644.000000000233}]",8166.7,"""","""","""","""","""","""","""","""",2021-05-20 22:51,,"Mozilla/5.0 (Linux; Android 11; SM-G986W Build/RP1A.200720.012; wv) AppleWebKit/537.36 (KHTML, like Gecko) Version/4.0 Chrome/90.0.4430.210 Mobile Safari/537.36 [FB_IAB/FB4A;FBAV/318.0.0.39.154;]",WebKit,Chrome,90.0.4430.210,AndroidOS,11
42,1,"""","""","""","""","""",survey-multi-choice,5,49351,0.0-6.0,,suf42s0,"""",22340.6,"""","{""repeatsurvey"":""Yes"",""prog"":""Strongly Disagree"",""anyprog"":""No"",""classoff"":""Yes""}","""","[0,1,2,3]","""","""","""","""",2021-05-20 22:51,,"Mozilla/5.0 (Linux; Android 11; SM-G986W Build/RP1A.200720.012; wv) AppleWebKit/537.36 (KHTML, like Gecko) Version/4.0 Chrome/90.0.4430.210 Mobile Safari/537.36 [FB_IAB/FB4A;FBAV/318.0.0.39.154;]",WebKit,Chrome,90.0.4430.210,AndroidOS,11
42,1,"""","""","""","""","""",html-slider-response,6,73792,0.0-7.0,,suf42s0,"""",24437.5,Use the slider to answer this question. You can slide the indicator anywhere between these two extremes.,0,"""","""",50,"""","""","""",2021-05-20 22:51,,"Mozilla/5.0 (Linux; Android 11; SM-G986W Build/RP1A.200720.012; wv) AppleWebKit/537.36 (KHTML, like Gecko) Version/4.0 Chrome/90.0.4430.210 Mobile Safari/537.36 [FB_IAB/FB4A;FBAV/318.0.0.39.154;]",WebKit,Chrome,90.0.4430.210,AndroidOS,11
42,1,"""","""","""","""","""",instructions,7,90925,0.0-8.0,,suf42s0,"[{""page_index"":0,""viewing_time"":6227.599999998347},{""page_index"":1,""viewing_time"":2773.4999999956926},{""page_index"":2,""viewing_time"":2950.200000006589},{""page_index"":3,""viewing_time"":2632.499999992433},{""page_index"":4,""viewing_time"":2546.100000006845}]",17130.2,"""","""","""","""","""","""","""","""",2021-05-20 22:51,,"Mozilla/5.0 (Linux; Android 11; SM-G986W Build/RP1A.200720.012; wv) AppleWebKit/537.36 (KHTML, like Gecko) Version/4.0 Chrome/90.0.4430.210 Mobile Safari/537.36 [FB_IAB/FB4A;FBAV/318.0.0.39.154;]",WebKit,Chrome,90.0.4430.210,AndroidOS,11
42,1,"""","""","""","""","""",free-sort,8,117691,0.0-9.0,,suf42s0,"""",26762.8,"""","""","""","""","""","[{""src"":""Stimuli/1.jpg"",""x"":104,""y"":130},{""src"":""Stimuli/2.jpg"",""x"":208,""y"":47},{""src"":""Stimuli/3.jpg"",""x"":98,""y"":249},{""src"":""Stimuli/4.jpg"",""x"":143,""y"":194},{""src"":""Stimuli/5.jpg"",""x"":201,""y"":81},{""src"":""Stimuli/6.jpg"",""x"":76,""y"":232},{""src"":""Stimuli/7.jpg"",""x"":34,""y"":131},{""src"":""Stimuli/8.jpg"",""x"":153,""y"":161}]","[{""src"":""Stimuli/8.jpg"",""x"":253,""y"":294},{""src"":""Stimuli/5.jpg"",""x"":43,""y"":41},{""src"":""Stimuli/2.jpg"",""x"":239,""y"":141},{""src"":""Stimuli/6.jpg"",""x"":172,""y"":30},{""src"":""Stimuli/1.jpg"",""x"":9,""y"":153},{""src"":""Stimuli/7.jpg"",""x"":105,""y"":87},{""src"":""Stimuli/1.jpg"",""x"":14,""y"":17},{""src"":""Stimuli/6.jpg"",""x"":45,""y"":17},{""src"":""Stimuli/7.jpg"",""x"":62,""y"":20},{""src"":""Stimuli/4.jpg"",""x"":111,""y"":76},{""src"":""Stimuli/3.jpg"",""x"":57,""y"":18},{""src"":""Stimuli/2.jpg"",""x"":231,""y"":136},{""src"":""Stimuli/8.jpg"",""x"":251,""y"":274}]","[{""src"":""Stimuli/1.jpg"",""x"":14,""y"":17},{""src"":""Stimuli/2.jpg"",""x"":231,""y"":135},{""src"":""Stimuli/3.jpg"",""x"":57,""y"":17},{""src"":""Stimuli/4.jpg"",""x"":111,""y"":75},{""src"":""Stimuli/5.jpg"",""x"":42,""y"":41},{""src"":""Stimuli/6.jpg"",""x"":45,""y"":17},{""src"":""Stimuli/7.jpg"",""x"":61,""y"":20},{""src"":""Stimuli/8.jpg"",""x"":250,""y"":273}]",2021-05-20 22:51,,"Mozilla/5.0 (Linux; Android 11; SM-G986W Build/RP1A.200720.012; wv) AppleWebKit/537.36 (KHTML, like Gecko) Version/4.0 Chrome/90.0.4430.210 Mobile Safari/537.36 [FB_IAB/FB4A;FBAV/318.0.0.39.154;]",WebKit,Chrome,90.0.4430.210,AndroidOS,11
42,1,"""","""","""","""","""",survey-text,9,131897,0.0-10.0,,suf42s0,"""",14193.3,"""","{""Q0"":""Session a bit""}","""","""","""","""","""","""",2021-05-20 22:51,,"Mozilla/5.0 (Linux; Android 11; SM-G986W Build/RP1A.200720.012; wv) AppleWebKit/537.36 (KHTML, like Gecko) Version/4.0 Chrome/90.0.4430.210 Mobile Safari/537.36 [FB_IAB/FB4A;FBAV/318.0.0.39.154;]",WebKit,Chrome,90.0.4430.210,AndroidOS,11
42,1,"""","""","""","""","""",survey-multi-select,10,163580,0.0-11.0,,suf42s0,"""",31672.8,"""","{""Topics_research"":[""Clinical and Health"",""Cognitive Science"",""Development"",""Psychometrics"",""Personality and Social"",""Neuroscience""],""Topics_analyses"":[""Data analysis and visualization"",""Building experiments"",""Making websites and apps"",""Getting a job"",""For my own knowledge""]}","""","[1,0]","""","""","""","""",2021-05-20 22:51,,"Mozilla/5.0 (Linux; Android 11; SM-G986W Build/RP1A.200720.012; wv) AppleWebKit/537.36 (KHTML, like Gecko) Version/4.0 Chrome/90.0.4430.210 Mobile Safari/537.36 [FB_IAB/FB4A;FBAV/318.0.0.39.154;]",WebKit,Chrome,90.0.4430.210,AndroidOS,11
42,1,"""","""","""","""","""",survey-text,11,182782,0.0-12.0,,suf42s0,"""",19193.7,"""","{""email"":"" "",""comments"":""Keep it uo""}","""","""","""","""","""","""",2021-05-20 22:51,,"Mozilla/5.0 (Linux; Android 11; SM-G986W Build/RP1A.200720.012; wv) AppleWebKit/537.36 (KHTML, like Gecko) Version/4.0 Chrome/90.0.4430.210 Mobile Safari/537.36 [FB_IAB/FB4A;FBAV/318.0.0.39.154;]",WebKit,Chrome,90.0.4430.210,AndroidOS,11
44,1,TRUE,FALSE,[],[],[],preload,0,878,0.0-0.0,,wu0xy9a,"""","""","""","""","""","""","""","""","""","""",2021-05-20 23:04,,"Mozilla/5.0 (Linux; Android 8.0.0; SM-G930W8 Build/R16NW; wv) AppleWebKit/537.36 (KHTML, like Gecko) Version/4.0 Chrome/90.0.4430.210 Mobile Safari/537.36 [FB_IAB/FB4A;FBAV/318.0.0.39.154;]",WebKit,Chrome,90.0.4430.210,AndroidOS,8.0.0
44,1,"""","""","""","""","""",instructions,1,12394,0.0-1.0,,wu0xy9a,"[{""page_index"":0,""viewing_time"":3004.3000000005122},{""page_index"":1,""viewing_time"":2144.5000000003347},{""page_index"":2,""viewing_time"":1593.3999999997468},{""page_index"":3,""viewing_time"":4742.2999999998865}]",11488.9,"""","""","""","""","""","""","""","""",2021-05-20 23:04,,"Mozilla/5.0 (Linux; Android 8.0.0; SM-G930W8 Build/R16NW; wv) AppleWebKit/537.36 (KHTML, like Gecko) Version/4.0 Chrome/90.0.4430.210 Mobile Safari/537.36 [FB_IAB/FB4A;FBAV/318.0.0.39.154;]",WebKit,Chrome,90.0.4430.210,AndroidOS,8.0.0
44,1,"""","""","""","""","""",html-button-response,2,13922,0.0-2.0,,wu0xy9a,"""",1520.1,"""",0,consent,"""","""","""","""","""",2021-05-20 23:04,,"Mozilla/5.0 (Linux; Android 8.0.0; SM-G930W8 Build/R16NW; wv) AppleWebKit/537.36 (KHTML, like Gecko) Version/4.0 Chrome/90.0.4430.210 Mobile Safari/537.36 [FB_IAB/FB4A;FBAV/318.0.0.39.154;]",WebKit,Chrome,90.0.4430.210,AndroidOS,8.0.0
44,1,"""","""","""","""","""",html-button-response,3,16674,0.0-4.0,,wu0xy9a,"""",2743.6,<p>Alright! Let's keep going. Which of these options best describes you?<br></p>,1,"""","""","""","""","""","""",2021-05-20 23:04,,"Mozilla/5.0 (Linux; Android 8.0.0; SM-G930W8 Build/R16NW; wv) AppleWebKit/537.36 (KHTML, like Gecko) Version/4.0 Chrome/90.0.4430.210 Mobile Safari/537.36 [FB_IAB/FB4A;FBAV/318.0.0.39.154;]",WebKit,Chrome,90.0.4430.210,AndroidOS,8.0.0
44,1,"""","""","""","""","""",instructions,4,25443,0.0-5.0,,wu0xy9a,"[{""page_index"":0,""viewing_time"":832.5000000004366},{""page_index"":1,""viewing_time"":7934.09999999858}]",8767.2,"""","""","""","""","""","""","""","""",2021-05-20 23:04,,"Mozilla/5.0 (Linux; Android 8.0.0; SM-G930W8 Build/R16NW; wv) AppleWebKit/537.36 (KHTML, like Gecko) Version/4.0 Chrome/90.0.4430.210 Mobile Safari/537.36 [FB_IAB/FB4A;FBAV/318.0.0.39.154;]",WebKit,Chrome,90.0.4430.210,AndroidOS,8.0.0
44,1,"""","""","""","""","""",survey-multi-choice,5,46788,0.0-6.0,,wu0xy9a,"""",21329.4,"""","{""repeatsurvey"":""Yes"",""prog"":""Agree"",""anyprog"":""No"",""classoff"":""Yes""}","""","[0,1,2,3]","""","""","""","""",2021-05-20 23:04,,"Mozilla/5.0 (Linux; Android 8.0.0; SM-G930W8 Build/R16NW; wv) AppleWebKit/537.36 (KHTML, like Gecko) Version/4.0 Chrome/90.0.4430.210 Mobile Safari/537.36 [FB_IAB/FB4A;FBAV/318.0.0.39.154;]",WebKit,Chrome,90.0.4430.210,AndroidOS,8.0.0
44,1,"""","""","""","""","""",html-slider-response,6,67988,0.0-7.0,,wu0xy9a,"""",21192.2,Use the slider to answer this question. You can slide the indicator anywhere between these two extremes.,12,"""","""",50,"""","""","""",2021-05-20 23:04,,"Mozilla/5.0 (Linux; Android 8.0.0; SM-G930W8 Build/R16NW; wv) AppleWebKit/537.36 (KHTML, like Gecko) Version/4.0 Chrome/90.0.4430.210 Mobile Safari/537.36 [FB_IAB/FB4A;FBAV/318.0.0.39.154;]",WebKit,Chrome,90.0.4430.210,AndroidOS,8.0.0
44,1,"""","""","""","""","""",instructions,7,83607,0.0-8.0,,wu0xy9a,"[{""page_index"":0,""viewing_time"":4108.799999999974},{""page_index"":1,""viewing_time"":3588.10000000085},{""page_index"":2,""viewing_time"":3969.2999999988388},{""page_index"":3,""viewing_time"":2415.500000000975},{""page_index"":4,""viewing_time"":1527.2000000004482}]",15609.6,"""","""","""","""","""","""","""","""",2021-05-20 23:04,,"Mozilla/5.0 (Linux; Android 8.0.0; SM-G930W8 Build/R16NW; wv) AppleWebKit/537.36 (KHTML, like Gecko) Version/4.0 Chrome/90.0.4430.210 Mobile Safari/537.36 [FB_IAB/FB4A;FBAV/318.0.0.39.154;]",WebKit,Chrome,90.0.4430.210,AndroidOS,8.0.0
44,1,"""","""","""","""","""",free-sort,8,122169,0.0-9.0,,wu0xy9a,"""",38554.2,"""","""","""","""","""","[{""src"":""Stimuli/1.jpg"",""x"":80,""y"":197},{""src"":""Stimuli/2.jpg"",""x"":296,""y"":124},{""src"":""Stimuli/3.jpg"",""x"":133,""y"":54},{""src"":""Stimuli/4.jpg"",""x"":88,""y"":65},{""src"":""Stimuli/5.jpg"",""x"":121,""y"":62},{""src"":""Stimuli/6.jpg"",""x"":2,""y"":141},{""src"":""Stimuli/7.jpg"",""x"":281,""y"":205},{""src"":""Stimuli/8.jpg"",""x"":29,""y"":25}]","[{""src"":""Stimuli/8.jpg"",""x"":70,""y"":300},{""src"":""Stimuli/5.jpg"",""x"":154,""y"":296},{""src"":""Stimuli/4.jpg"",""x"":197,""y"":254},{""src"":""Stimuli/2.jpg"",""x"":178,""y"":1},{""src"":""Stimuli/3.jpg"",""x"":240,""y"":228},{""src"":""Stimuli/1.jpg"",""x"":227,""y"":294},{""src"":""Stimuli/8.jpg"",""x"":85,""y"":-17},{""src"":""Stimuli/8.jpg"",""x"":95,""y"":18},{""src"":""Stimuli/2.jpg"",""x"":193,""y"":21},{""src"":""Stimuli/7.jpg"",""x"":137,""y"":149},{""src"":""Stimuli/6.jpg"",""x"":6,""y"":145},{""src"":""Stimuli/4.jpg"",""x"":265,""y"":155},{""src"":""Stimuli/1.jpg"",""x"":119,""y"":194},{""src"":""Stimuli/5.jpg"",""x"":112,""y"":310},{""src"":""Stimuli/7.jpg"",""x"":3,""y"":295},{""src"":""Stimuli/7.jpg"",""x"":123,""y"":179},{""src"":""Stimuli/3.jpg"",""x"":216,""y"":297},{""src"":""Stimuli/4.jpg"",""x"":265,""y"":247},{""src"":""Stimuli/7.jpg"",""x"":191,""y"":242},{""src"":""Stimuli/1.jpg"",""x"":-15,""y"":350},{""src"":""Stimuli/1.jpg"",""x"":33,""y"":294},{""src"":""Stimuli/6.jpg"",""x"":304,""y"":299},{""src"":""Stimuli/7.jpg"",""x"":134,""y"":238},{""src"":""Stimuli/7.jpg"",""x"":106,""y"":208},{""src"":""Stimuli/8.jpg"",""x"":89,""y"":51},{""src"":""Stimuli/2.jpg"",""x"":213,""y"":67},{""src"":""Stimuli/7.jpg"",""x"":98,""y"":171},{""src"":""Stimuli/4.jpg"",""x"":205,""y"":227}]","[{""src"":""Stimuli/1.jpg"",""x"":32,""y"":294},{""src"":""Stimuli/2.jpg"",""x"":212,""y"":67},{""src"":""Stimuli/3.jpg"",""x"":216,""y"":296},{""src"":""Stimuli/4.jpg"",""x"":205,""y"":226},{""src"":""Stimuli/5.jpg"",""x"":111,""y"":309},{""src"":""Stimuli/6.jpg"",""x"":304,""y"":299},{""src"":""Stimuli/7.jpg"",""x"":98,""y"":170},{""src"":""Stimuli/8.jpg"",""x"":88,""y"":50}]",2021-05-20 23:04,,"Mozilla/5.0 (Linux; Android 8.0.0; SM-G930W8 Build/R16NW; wv) AppleWebKit/537.36 (KHTML, like Gecko) Version/4.0 Chrome/90.0.4430.210 Mobile Safari/537.36 [FB_IAB/FB4A;FBAV/318.0.0.39.154;]",WebKit,Chrome,90.0.4430.210,AndroidOS,8.0.0
44,1,"""","""","""","""","""",survey-text,9,126059,0.0-10.0,,wu0xy9a,"""",3858.2,"""","{""Q0"":""}","""","""","""","""","""","""",2021-05-20 23:04,,"Mozilla/5.0 (Linux; Android 8.0.0; SM-G930W8 Build/R16NW; wv) AppleWebKit/537.36 (KHTML, like Gecko) Version/4.0 Chrome/90.0.4430.210 Mobile Safari/537.36 [FB_IAB/FB4A;FBAV/318.0.0.39.154;]",WebKit,Chrome,90.0.4430.210,AndroidOS,8.0.0
44,1,"""","""","""","""","""",survey-multi-select,10,152830,0.0-11.0,,wu0xy9a,"""",26732.7,"""","{""Topics_research"":[""Clinical and Health"",""Cognitive Science"",""Neuroscience""],""Topics_analyses"":[""Data analysis and visualization"",""Building experiments"",""For my own knowledge""]}","""","[0,1]","""","""","""","""",2021-05-20 23:04,,"Mozilla/5.0 (Linux; Android 8.0.0; SM-G930W8 Build/R16NW; wv) AppleWebKit/537.36 (KHTML, like Gecko) Version/4.0 Chrome/90.0.4430.210 Mobile Safari/537.36 [FB_IAB/FB4A;FBAV/318.0.0.39.154;]",WebKit,Chrome,90.0.4430.210,AndroidOS,8.0.0
44,1,"""","""","""","""","""",survey-text,11,180382,0.0-12.0,,wu0xy9a,"""",27529.5,"""","{""email"":"""",""comments"":""Really cool initiative!""}","""","""","""","""","""","""",2021-05-20 23:04,,"Mozilla/5.0 (Linux; Android 8.0.0; SM-G930W8 Build/R16NW; wv) AppleWebKit/537.36 (KHTML, like Gecko) Version/4.0 Chrome/90.0.4430.210 Mobile Safari/537.36 [FB_IAB/FB4A;FBAV/318.0.0.39.154;]",WebKit,Chrome,90.0.4430.210,AndroidOS,8.0.0
45,1,TRUE,FALSE,[],[],[],preload,0,881,0.0-0.0,IwAR3OXKY7nloF3NrDFsK3Fk0cETE1pz8CJbcrVGgTNsK9OWka9X9m1PJ4E_g,gjd5c6a,"""","""","""","""","""","""","""","""","""","""",2021-05-20 23:15,,"Mozilla/5.0 (Macintosh; Intel Mac OS X 10_15_7) AppleWebKit/537.36 (KHTML, like Gecko) Chrome/90.0.4430.212 Safari/537.36",Macintosh,Chrome,90.0.4430.212,OS X,10_15_7
45,1,"""","""","""","""","""",instructions,1,80638,0.0-1.0,IwAR3OXKY7nloF3NrDFsK3Fk0cETE1pz8CJbcrVGgTNsK9OWka9X9m1PJ4E_g,gjd5c6a,"[{""page_index"":0,""viewing_time"":71977.17499997816},{""page_index"":1,""viewing_time"":1724.1050000011455},{""page_index"":2,""viewing_time"":1015.8950000186451},{""page_index"":3,""viewing_time"":5030.624999984866}]",79749.08,"""","""","""","""","""","""","""","""",2021-05-20 23:15,,"Mozilla/5.0 (Macintosh; Intel Mac OS X 10_15_7) AppleWebKit/537.36 (KHTML, like Gecko) Chrome/90.0.4430.212 Safari/537.36",Macintosh,Chrome,90.0.4430.212,OS X,10_15_7
45,1,"""","""","""","""","""",html-button-response,2,82249,0.0-2.0,IwAR3OXKY7nloF3NrDFsK3Fk0cETE1pz8CJbcrVGgTNsK9OWka9X9m1PJ4E_g,gjd5c6a,"""",1690.17,"""",0,consent,"""","""","""","""","""",2021-05-20 23:15,,"Mozilla/5.0 (Macintosh; Intel Mac OS X 10_15_7) AppleWebKit/537.36 (KHTML, like Gecko) Chrome/90.0.4430.212 Safari/537.36",Macintosh,Chrome,90.0.4430.212,OS X,10_15_7
45,1,"""","""","""","""","""",html-button-response,3,86248,0.0-4.0,IwAR3OXKY7nloF3NrDFsK3Fk0cETE1pz8CJbcrVGgTNsK9OWka9X9m1PJ4E_g,gjd5c6a,"""",3996.23,<p>Alright! Let's keep going. Which of these options best describes you?<br></p>,0,"""","""","""","""","""","""",2021-05-20 23:15,,"Mozilla/5.0 (Macintosh; Intel Mac OS X 10_15_7) AppleWebKit/537.36 (KHTML, like Gecko) Chrome/90.0.4430.212 Safari/537.36",Macintosh,Chrome,90.0.4430.212,OS X,10_15_7
45,1,"""","""","""","""","""",instructions,4,88932,0.0-5.0,IwAR3OXKY7nloF3NrDFsK3Fk0cETE1pz8CJbcrVGgTNsK9OWka9X9m1PJ4E_g,gjd5c6a,"[{""page_index"":0,""viewing_time"":1151.6500000143424},{""page_index"":1,""viewing_time"":1530.5549999757204}]",2682.565,"""","""","""","""","""","""","""","""",2021-05-20 23:15,,"Mozilla/5.0 (Macintosh; Intel Mac OS X 10_15_7) AppleWebKit/537.36 (KHTML, like Gecko) Chrome/90.0.4430.212 Safari/537.36",Macintosh,Chrome,90.0.4430.212,OS X,10_15_7
45,1,"""","""","""","""","""",survey-multi-choice,5,102351,0.0-6.0,IwAR3OXKY7nloF3NrDFsK3Fk0cETE1pz8CJbcrVGgTNsK9OWka9X9m1PJ4E_g,gjd5c6a,"""",13407.605,"""","{""repeatsurvey"":""Yes"",""prog"":""Somewhat Agree"",""anyprog"":""Yes"",""classoff"":""Yes""}","""","[0,1,2,3]","""","""","""","""",2021-05-20 23:15,,"Mozilla/5.0 (Macintosh; Intel Mac OS X 10_15_7) AppleWebKit/537.36 (KHTML, like Gecko) Chrome/90.0.4430.212 Safari/537.36",Macintosh,Chrome,90.0.4430.212,OS X,10_15_7
45,1,"""","""","""","""","""",html-slider-response,6,108250,0.0-7.0,IwAR3OXKY7nloF3NrDFsK3Fk0cETE1pz8CJbcrVGgTNsK9OWka9X9m1PJ4E_g,gjd5c6a,"""",5893.33,Use the slider to answer this question. You can slide the indicator anywhere between these two extremes.,62,"""","""",50,"""","""","""",2021-05-20 23:15,,"Mozilla/5.0 (Macintosh; Intel Mac OS X 10_15_7) AppleWebKit/537.36 (KHTML, like Gecko) Chrome/90.0.4430.212 Safari/537.36",Macintosh,Chrome,90.0.4430.212,OS X,10_15_7
45,1,"""","""","""","""","""",instructions,7,116744,0.0-8.0,IwAR3OXKY7nloF3NrDFsK3Fk0cETE1pz8CJbcrVGgTNsK9OWka9X9m1PJ4E_g,gjd5c6a,"[{""page_index"":0,""viewing_time"":2372.2149999812245},{""page_index"":1,""viewing_time"":1823.9600000088103},{""page_index"":2,""viewing_time"":1215.5100000090897},{""page_index"":3,""viewing_time"":1875.0899999868125},{""page_index"":4,""viewing_time"":1203.0350000131875}]",8490.1,"""","""","""","""","""","""","""","""",2021-05-20 23:15,,"Mozilla/5.0 (Macintosh; Intel Mac OS X 10_15_7) AppleWebKit/537.36 (KHTML, like Gecko) Chrome/90.0.4430.212 Safari/537.36",Macintosh,Chrome,90.0.4430.212,OS X,10_15_7
45,1,"""","""","""","""","""",free-sort,8,153832,0.0-9.0,IwAR3OXKY7nloF3NrDFsK3Fk0cETE1pz8CJbcrVGgTNsK9OWka9X9m1PJ4E_g,gjd5c6a,"""",37083.245,"""","""","""","""","""","[{""src"":""Stimuli/1.jpg"",""x"":139,""y"":68},{""src"":""Stimuli/2.jpg"",""x"":125,""y"":250},{""src"":""Stimuli/3.jpg"",""x"":11,""y"":180},{""src"":""Stimuli/4.jpg"",""x"":120,""y"":153},{""src"":""Stimuli/5.jpg"",""x"":200,""y"":19},{""src"":""Stimuli/6.jpg"",""x"":287,""y"":0},{""src"":""Stimuli/7.jpg"",""x"":46,""y"":31},{""src"":""Stimuli/8.jpg"",""x"":77,""y"":269}]","[{""src"":""Stimuli/7.jpg"",""x"":46,""y"":-34},{""src"":""Stimuli/5.jpg"",""x"":182,""y"":282},{""src"":""Stimuli/4.jpg"",""x"":269,""y"":129},{""src"":""Stimuli/2.jpg"",""x"":55,""y"":76},{""src"":""Stimuli/2.jpg"",""x"":52,""y"":50},{""src"":""Stimuli/1.jpg"",""x"":139,""y"":68},{""src"":""Stimuli/7.jpg"",""x"":-14,""y"":-39},{""src"":""Stimuli/2.jpg"",""x"":27,""y"":50},{""src"":""Stimuli/1.jpg"",""x"":274,""y"":270},{""src"":""Stimuli/5.jpg"",""x"":177,""y"":283},{""src"":""Stimuli/8.jpg"",""x"":79,""y"":286},{""src"":""Stimuli/8.jpg"",""x"":113,""y"":175},{""src"":""Stimuli/3.jpg"",""x"":51,""y"":268},{""src"":""Stimuli/4.jpg"",""x"":158,""y"":274},{""src"":""Stimuli/6.jpg"",""x"":275,""y"":273},{""src"":""Stimuli/2.jpg"",""x"":302,""y"":-16}]","[{""src"":""Stimuli/1.jpg"",""x"":274,""y"":270},{""src"":""Stimuli/2.jpg"",""x"":302,""y"":-16},{""src"":""Stimuli/3.jpg"",""x"":51,""y"":268},{""src"":""Stimuli/4.jpg"",""x"":158,""y"":274},{""src"":""Stimuli/5.jpg"",""x"":177,""y"":283},{""src"":""Stimuli/6.jpg"",""x"":275,""y"":273},{""src"":""Stimuli/7.jpg"",""x"":-14,""y"":-39},{""src"":""Stimuli/8.jpg"",""x"":113,""y"":175}]",2021-05-20 23:15,,"Mozilla/5.0 (Macintosh; Intel Mac OS X 10_15_7) AppleWebKit/537.36 (KHTML, like Gecko) Chrome/90.0.4430.212 Safari/537.36",Macintosh,Chrome,90.0.4430.212,OS X,10_15_7
45,1,"""","""","""","""","""",survey-text,9,155599,0.0-10.0,IwAR3OXKY7nloF3NrDFsK3Fk0cETE1pz8CJbcrVGgTNsK9OWka9X9m1PJ4E_g,gjd5c6a,"""",1727.395,"""","{""Q0"":""}","""","""","""","""","""","""",2021-05-20 23:15,,"Mozilla/5.0 (Macintosh; Intel Mac OS X 10_15_7) AppleWebKit/537.36 (KHTML, like Gecko) Chrome/90.0.4430.212 Safari/537.36",Macintosh,Chrome,90.0.4430.212,OS X,10_15_7
45,1,"""","""","""","""","""",survey-multi-select,10,208330,0.0-11.0,IwAR3OXKY7nloF3NrDFsK3Fk0cETE1pz8CJbcrVGgTNsK9OWka9X9m1PJ4E_g,gjd5c6a,"""",52721.73,"""","{""Topics_research"":[""Clinical and Health"",""Development"",""Personality and Social""],""Topics_analyses"":[""Data analysis and visualization"",""Building experiments"",""Making websites and apps""]}","""","[1,0]","""","""","""","""",2021-05-20 23:15,,"Mozilla/5.0 (Macintosh; Intel Mac OS X 10_15_7) AppleWebKit/537.36 (KHTML, like Gecko) Chrome/90.0.4430.212 Safari/537.36",Macintosh,Chrome,90.0.4430.212,OS X,10_15_7
45,1,"""","""","""","""","""",survey-text,11,213175,0.0-12.0,IwAR3OXKY7nloF3NrDFsK3Fk0cETE1pz8CJbcrVGgTNsK9OWka9X9m1PJ4E_g,gjd5c6a,"""",4836.295,"""","{""email"":"",""comments"":""}","""","""","""","""","""","""",2021-05-20 23:15,,"Mozilla/5.0 (Macintosh; Intel Mac OS X 10_15_7) AppleWebKit/537.36 (KHTML, like Gecko) Chrome/90.0.4430.212 Safari/537.36",Macintosh,Chrome,90.0.4430.212,OS X,10_15_7
52,1,TRUE,FALSE,[],[],[],preload,0,518,0.0-0.0,IwAR19iN29KcWQUa4vWVE_g8XrZ8DiVIXf6oF1mP-MLsG3TxKe838jSxTlDMY,j6js9o4,"""","""","""","""","""","""","""","""","""","""",2021-05-20 23:32,,"Mozilla/5.0 (Macintosh; Intel Mac OS X 10_15_7) AppleWebKit/537.36 (KHTML, like Gecko) Chrome/90.0.4430.212 Safari/537.36",Macintosh,Chrome,90.0.4430.212,OS X,10_15_7
52,1,"""","""","""","""","""",instructions,1,16666,0.0-1.0,IwAR19iN29KcWQUa4vWVE_g8XrZ8DiVIXf6oF1mP-MLsG3TxKe838jSxTlDMY,j6js9o4,"[{""page_index"":0,""viewing_time"":5865.374999993946},{""page_index"":1,""viewing_time"":6590.454999997746},{""page_index"":2,""viewing_time"":2682.6649999711663},{""page_index"":3,""viewing_time"":1005.5900000152178}]",16145.25,"""","""","""","""","""","""","""","""",2021-05-20 23:32,,"Mozilla/5.0 (Macintosh; Intel Mac OS X 10_15_7) AppleWebKit/537.36 (KHTML, like Gecko) Chrome/90.0.4430.212 Safari/537.36",Macintosh,Chrome,90.0.4430.212,OS X,10_15_7
52,1,"""","""","""","""","""",html-button-response,2,18446,0.0-2.0,IwAR19iN29KcWQUa4vWVE_g8XrZ8DiVIXf6oF1mP-MLsG3TxKe838jSxTlDMY,j6js9o4,"""",1777.665,"""",0,consent,"""","""","""","""","""",2021-05-20 23:32,,"Mozilla/5.0 (Macintosh; Intel Mac OS X 10_15_7) AppleWebKit/537.36 (KHTML, like Gecko) Chrome/90.0.4430.212 Safari/537.36",Macintosh,Chrome,90.0.4430.212,OS X,10_15_7
52,1,"""","""","""","""","""",html-button-response,3,34396,0.0-4.0,IwAR19iN29KcWQUa4vWVE_g8XrZ8DiVIXf6oF1mP-MLsG3TxKe838jSxTlDMY,j6js9o4,"""",15944.13,<p>Alright! Let's keep going. Which of these options best describes you?<br></p>,2,"""","""","""","""","""","""",2021-05-20 23:32,,"Mozilla/5.0 (Macintosh; Intel Mac OS X 10_15_7) AppleWebKit/537.36 (KHTML, like Gecko) Chrome/90.0.4430.212 Safari/537.36",Macintosh,Chrome,90.0.4430.212,OS X,10_15_7
52,1,"""","""","""","""","""",instructions,4,37765,0.0-5.0,IwAR19iN29KcWQUa4vWVE_g8XrZ8DiVIXf6oF1mP-MLsG3TxKe838jSxTlDMY,j6js9o4,"[{""page_index"":0,""viewing_time"":1377.455000008922},{""page_index"":1,""viewing_time"":1990.5049999943003}]",3368.205,"""","""","""","""","""","""","""","""",2021-05-20 23:32,,"Mozilla/5.0 (Macintosh; Intel Mac OS X 10_15_7) AppleWebKit/537.36 (KHTML, like Gecko) Chrome/90.0.4430.212 Safari/537.36",Macintosh,Chrome,90.0.4430.212,OS X,10_15_7
52,1,"""","""","""","""","""",survey-multi-choice,5,56443,0.0-6.0,IwAR19iN29KcWQUa4vWVE_g8XrZ8DiVIXf6oF1mP-MLsG3TxKe838jSxTlDMY,j6js9o4,"""",18670.875,"""","{""repeatsurvey"":""Yes"",""prog"":""Agree"",""anyprog"":""Yes"",""classoff"":""Yes""}","""","[0,1,2,3]","""","""","""","""",2021-05-20 23:32,,"Mozilla/5.0 (Macintosh; Intel Mac OS X 10_15_7) AppleWebKit/537.36 (KHTML, like Gecko) Chrome/90.0.4430.212 Safari/537.36",Macintosh,Chrome,90.0.4430.212,OS X,10_15_7
52,1,"""","""","""","""","""",html-slider-response,6,66718,0.0-7.0,IwAR19iN29KcWQUa4vWVE_g8XrZ8DiVIXf6oF1mP-MLsG3TxKe838jSxTlDMY,j6js9o4,"""",10272.29,Use the slider to answer this question. You can slide the indicator anywhere between these two extremes.,64,"""","""",50,"""","""","""",2021-05-20 23:32,,"Mozilla/5.0 (Macintosh; Intel Mac OS X 10_15_7) AppleWebKit/537.36 (KHTML, like Gecko) Chrome/90.0.4430.212 Safari/537.36",Macintosh,Chrome,90.0.4430.212,OS X,10_15_7
52,1,"""","""","""","""","""",instructions,7,77960,0.0-8.0,IwAR19iN29KcWQUa4vWVE_g8XrZ8DiVIXf6oF1mP-MLsG3TxKe838jSxTlDMY,j6js9o4,"[{""page_index"":0,""viewing_time"":4078.834999992978},{""page_index"":1,""viewing_time"":1891.3349999929778},{""page_index"":2,""viewing_time"":1052.0400000386871},{""page_index"":3,""viewing_time"":1178.249999997206},{""page_index"":4,""viewing_time"":3039.084999996703}]",11239.835,"""","""","""","""","""","""","""","""",2021-05-20 23:32,,"Mozilla/5.0 (Macintosh; Intel Mac OS X 10_15_7) AppleWebKit/537.36 (KHTML, like Gecko) Chrome/90.0.4430.212 Safari/537.36",Macintosh,Chrome,90.0.4430.212,OS X,10_15_7
